<?xml version="1.0" encoding="ISO-8859-1" ?>
<?xml-stylesheet type="text/xsl" href="define1-0-0.xsl"?>
<!-- ******************************************************************************* -->
<!-- File: define.xml                                                                -->
<!-- Date: 04/18/2007                                                                -->
<!-- Author: DCRI                                                                    -->
<!-- Description: Define.xml file for CTN0001                                        -->
<!-- ******************************************************************************* -->
<ODM
  xmlns="http://www.cdisc.org/ns/odm/v1.2"
  xmlns:xsi="http://www.w3.org/2001/XMLSchema-instance"
  xmlns:xlink="http://www.w3.org/1999/xlink" 
  xmlns:def="http://www.cdisc.org/ns/def/v1.0"
  xsi:schemaLocation="http://www.cdisc.org/ns/odm/v1.2 define1-0-0.xsd"  
  FileOID="" 
  ODMVersion="1.2" 
  FileType="Archive" 
  CreationDateTime="2007-04-18T22:49:00">
<Study OID="1234">
  <GlobalVariables>
    <StudyName>NIDA-CTN-0001</StudyName>
    <StudyDescription>Buprenorphine/Nalaxone Versus Clonadine for Inpatient Opiate Detoxification</StudyDescription>
    <ProtocolName>CTN-0001</ProtocolName>
  </GlobalVariables>
  <MetaDataVersion OID="CDISC.SDTM.3.1.1"
    Name="CTN-0001, Data Definitions"
    Description="CTN-0001, Data Definitions"
    def:DefineVersion="1.0.0"
    def:StandardName="CDISC SDTM"
    def:StandardVersion="3.1.1">
    <def:AnnotatedCRF>
      <def:DocumentRef leafID="blankcrf"/>
    </def:AnnotatedCRF>
    <def:leaf ID="blankcrf" xlink:href="CTN001_SDTM_ANNOTATION_20070330.pdf">
      <def:title>Annotated Case Report Form</def:title>
    </def:leaf>
    <def:SupplementalDoc>                                                
	<def:DocumentRef leafID="Deidentification_notes"/>          
    </def:SupplementalDoc>                                               
    <def:leaf ID="Deidentification_notes"                           
	 xlink:href="Deidentification_notes.pdf">                   
      <def:title>Deidentification Notes Document</def:title>      
    </def:leaf>                                                          
    <!-- ******************************************* -->
    <!-- AE             ItemGroupDef INFORMATION *** -->
    <!-- ******************************************* -->
    <ItemGroupDef OID="AE"
      Name="AE"
      Repeating="Yes"
      IsReferenceData="No"
      Purpose="Tabulation"
      def:Label="Adverse Events"
      def:Structure="Events - One record per event per subject"
      def:DomainKeys="USUBJID, AETERM, AESEQ "
      def:Class="Events"
      def:ArchiveLocationID="Location.AE">
      <ItemRef ItemOID="STUDYID"
        OrderNumber="1"
        Role="IDENTIFIER"
        Mandatory="YES"/>
      <ItemRef ItemOID="DOMAIN"
        OrderNumber="2"
        Role="IDENTIFIER"
        Mandatory="YES"/>
      <ItemRef ItemOID="USUBJID"
        OrderNumber="3"
        Role="IDENTIFIER"
        Mandatory="YES"/>
      <ItemRef ItemOID="AE.AEDTC"
        OrderNumber="3.1"
        Role="TIMING"
        Mandatory="NO"/>
      <ItemRef ItemOID="AE.AEDY"
        OrderNumber="3.2"
        Role="TIMING"
        Mandatory="NO"/>
      <ItemRef ItemOID="AE.EPOCH"
        OrderNumber="3.3"
        Role="TIMING"
        Mandatory="NO"/>
      <ItemRef ItemOID="AE.VISIT"
        OrderNumber="3.4"
        Role="TIMING"
        Mandatory="NO"/>
      <ItemRef ItemOID="AE.VISITNUM"
        OrderNumber="3.5"
        Role="TIMING"
        Mandatory="NO"/>
      <ItemRef ItemOID="AE.AESEQ"
        OrderNumber="4"
        Role="IDENTIFIER"
        Mandatory="YES"/>
      <ItemRef ItemOID="AE.AETERM"
        OrderNumber="8"
        Role="TOPIC"
        Mandatory="YES"/>
      <ItemRef ItemOID="AE.AEDECOD"
        OrderNumber="10"
        Role="SYNONYM QUALIFIER"
        Mandatory="YES"/>
      <ItemRef ItemOID="AE.AEBODSYS"
        OrderNumber="14"
        Role="RECORD QUALIFIER"
        Mandatory="YES"/>
      <ItemRef ItemOID="AE.AESEV"
        OrderNumber="16"
        Role="RECORD QUALIFIER"
        Mandatory="NO"/>
      <ItemRef ItemOID="AE.AESER"
        OrderNumber="17"
        Role="RECORD QUALIFIER"
        Mandatory="YES"/>
      <ItemRef ItemOID="AE.AEACN"
        OrderNumber="18"
        Role="RECORD QUALIFIER"
        Mandatory="YES"/>
      <ItemRef ItemOID="AE.AEACNOTH"
        OrderNumber="19"
        Role="RECORD QUALIFIER"
        Mandatory="NO"/>
      <ItemRef ItemOID="AE.AEREL"
        OrderNumber="20"
        Role="RECORD QUALIFIER"
        Mandatory="YES"/>
      <ItemRef ItemOID="AE.AEOUT"
        OrderNumber="23"
        Role="RECORD QUALIFIER"
        Mandatory="NO"/>
      <ItemRef ItemOID="AE.AESCONG"
        OrderNumber="25"
        Role="RECORD QUALIFIER"
        Mandatory="NO"/>
      <ItemRef ItemOID="AE.AESDISAB"
        OrderNumber="26"
        Role="RECORD QUALIFIER"
        Mandatory="NO"/>
      <ItemRef ItemOID="AE.AESDTH"
        OrderNumber="27"
        Role="RECORD QUALIFIER"
        Mandatory="NO"/>
      <ItemRef ItemOID="AE.AESHOSP"
        OrderNumber="28"
        Role="RECORD QUALIFIER"
        Mandatory="NO"/>
      <ItemRef ItemOID="AE.AESLIFE"
        OrderNumber="29"
        Role="RECORD QUALIFIER"
        Mandatory="NO"/>
      <ItemRef ItemOID="AE.AESMIE"
        OrderNumber="31"
        Role="RECORD QUALIFIER"
        Mandatory="NO"/>
      <ItemRef ItemOID="AE.AECONTRT"
        OrderNumber="32"
        Role="RECORD QUALIFIER"
        Mandatory="NO"/>
      <ItemRef ItemOID="AE.AESTDTC"
        OrderNumber="34"
        Role="TIMING"
        Mandatory="YES"/>
      <ItemRef ItemOID="AE.AEENDTC"
        OrderNumber="35"
        Role="TIMING"
        Mandatory="YES"/>
      <ItemRef ItemOID="AE.AESTDY"
        OrderNumber="36"
        Role="TIMING"
        Mandatory="NO"/>
      <ItemRef ItemOID="AE.AEENDY"
        OrderNumber="37"
        Role="TIMING"
        Mandatory="NO"/>
      <ItemRef ItemOID="AE.AEENRF"
        OrderNumber="39"
        Role="TIMING"
        Mandatory="NO"/>
      <!-- **************************************************** -->
      <!-- def:leaf details for hypertext linking the dataset   -->
      <!-- **************************************************** -->
      <def:leaf ID="Location.AE" xlink:href="AE.csv">
        <def:title>AE.csv </def:title>
      </def:leaf>
    </ItemGroupDef>
    <!-- ******************************************* -->
    <!-- CM             ItemGroupDef INFORMATION *** -->
    <!-- ******************************************* -->
    <ItemGroupDef OID="CM"
      Name="CM"
      Repeating="Yes"
      IsReferenceData="No"
      Purpose="Tabulation "
      def:Label="Concomitant Medications"
      def:Structure="Interventions - One record per event per subject"
      def:DomainKeys="USUBJID, CMTRT, CMSEQ "
      def:Class="Interventions"
      def:ArchiveLocationID="Location.CM">
      <ItemRef ItemOID="STUDYID"
        OrderNumber="1"
        Role="IDENTIFIER"
        Mandatory="YES"/>
      <ItemRef ItemOID="DOMAIN"
        OrderNumber="2"
        Role="IDENTIFIER"
        Mandatory="YES"/>
      <ItemRef ItemOID="USUBJID"
        OrderNumber="3"
        Role="IDENTIFIER"
        Mandatory="YES"/>
      <ItemRef ItemOID="CM.CMDTC"
        OrderNumber="3.1"
        Role="TIMING"
        Mandatory="NO"/>
      <ItemRef ItemOID="CM.CMDY"
        OrderNumber="3.2"
        Role="TIMING"
        Mandatory="NO"/>
      <ItemRef ItemOID="CM.EPOCH"
        OrderNumber="3.3"
        Role="TIMING"
        Mandatory="NO"/>
      <ItemRef ItemOID="CM.VISIT"
        OrderNumber="3.4"
        Role="TIMING"
        Mandatory="NO"/>
      <ItemRef ItemOID="CM.VISITNUM"
        OrderNumber="3.5"
        Role="TIMING"
        Mandatory="NO"/>
      <ItemRef ItemOID="CM.CMSEQ"
        OrderNumber="4"
        Role="IDENTIFIER"
        Mandatory="YES"/>
      <ItemRef ItemOID="CM.CMSPID"
        OrderNumber="6"
        Role="IDENTIFIER"
        Mandatory="NO"/>
      <ItemRef ItemOID="CM.CMTRT"
        OrderNumber="7"
        Role="TOPIC"
        Mandatory="YES"/>
      <ItemRef ItemOID="CM.CMCAT"
        OrderNumber="10"
        Role="GROUPING QUALIFIER"
        Mandatory="NO"/>
      <ItemRef ItemOID="CM.CMSCAT"
        OrderNumber="11"
        Role="GROUPING QUALIFIER"
        Mandatory="NO"/>
      <ItemRef ItemOID="CM.CMOCCUR"
        OrderNumber="12"
        Role="RECORD QUALIFIER"
        Mandatory="NO"/>
      <ItemRef ItemOID="CM.CMINDC"
        OrderNumber="15"
        Role="RECORD QUALIFIER"
        Mandatory="NO"/>
      <ItemRef ItemOID="CM.CMDOSTXT"
        OrderNumber="19"
        Role="RECORD QUALIFIER"
        Mandatory="NO"/>
      <ItemRef ItemOID="CM.CMDOSU"
        OrderNumber="20"
        Role="VARIABLE QUALIFIER"
        Mandatory="NO"/>
      <ItemRef ItemOID="CM.CMDOSTOT"
        OrderNumber="23"
        Role="RECORD QUALIFIER"
        Mandatory="NO"/>
      <ItemRef ItemOID="CM.CMENDTC"
        OrderNumber="27"
        Role="TIMING"
        Mandatory="NO"/>
      <ItemRef ItemOID="CM.CMENDY"
        OrderNumber="29"
        Role="TIMING"
        Mandatory="NO"/>
      <!-- **************************************************** -->
      <!-- def:leaf details for hypertext linking the dataset   -->
      <!-- **************************************************** -->
      <def:leaf ID="Location.CM" xlink:href="CM.csv">
        <def:title>CM.csv </def:title>
      </def:leaf>
    </ItemGroupDef>
    <!-- ******************************************* -->
    <!-- DM             ItemGroupDef INFORMATION *** -->
    <!-- ******************************************* -->
    <ItemGroupDef OID="DM"
      Name="DM"
      Repeating="No"
      IsReferenceData="No"
      Purpose="Tabulation "
      def:Label="Demographics"
      def:Structure="Special Purpose - One record per event per subject"
      def:DomainKeys="STUDYID, USUBJID "
      def:Class="Special Purpose"
      def:ArchiveLocationID="Location.DM">
      <ItemRef ItemOID="STUDYID"
        OrderNumber="1"
        Role="IDENTIFIER"
        Mandatory="YES"/>
      <ItemRef ItemOID="DOMAIN"
        OrderNumber="2"
        Role="IDENTIFIER"
        Mandatory="YES"/>
      <ItemRef ItemOID="USUBJID"
        OrderNumber="3"
        Role="IDENTIFIER"
        Mandatory="YES"/>
      <ItemRef ItemOID="DM.EPOCH"
        OrderNumber="3.3"
        Role="TIMING"
        Mandatory="NO"/>
      <ItemRef ItemOID="DM.VISIT"
        OrderNumber="3.4"
        Role="TIMING"
        Mandatory="NO"/>
      <ItemRef ItemOID="DM.VISITNUM"
        OrderNumber="3.5"
        Role="TIMING"
        Mandatory="NO"/>
      <ItemRef ItemOID="SUBJID"
        OrderNumber="4"
        Role="TOPIC"
        Mandatory="YES"/>
      <ItemRef ItemOID="DM.RFSTDTC"
        OrderNumber="5"
        Role="TIMING"
        Mandatory="YES"/>
      <ItemRef ItemOID="DM.RFENDTC"
        OrderNumber="6"
        Role="TIMING"
        Mandatory="YES"/>
      <ItemRef ItemOID="DM.SITEID"
        OrderNumber="7"
        Role="RECORD QUALIFIER"
        Mandatory="YES"/>
      <ItemRef ItemOID="DM.BRTHDTC"
        OrderNumber="10"
        Role="RESULT QUALIFIER"
        Mandatory="NO"/>
      <ItemRef ItemOID="DM.AGE"
        OrderNumber="11"
        Role="RESULT QUALIFIER"
        Mandatory="YES"/>
      <ItemRef ItemOID="DM.AGEU"
        OrderNumber="12"
        Role="VARIABLE QUALIFIER"
        Mandatory="YES"/>
      <ItemRef ItemOID="DM.SEX"
        OrderNumber="13"
        Role="RESULT QUALIFIER"
        Mandatory="YES"/>
      <ItemRef ItemOID="DM.RACE"
        OrderNumber="14"
        Role="RESULT QUALIFIER"
        Mandatory="YES"/>
      <ItemRef ItemOID="DM.ETHNIC"
        OrderNumber="15"
        Role="RESULT QUALIFIER"
        Mandatory="NO"/>
      <ItemRef ItemOID="DM.ARMCD"
        OrderNumber="16"
        Role="RESULT QUALIFIER"
        Mandatory="YES"/>
      <ItemRef ItemOID="DM.ARM"
        OrderNumber="17"
        Role="SYNONYM QUALIFIER"
        Mandatory="YES"/>
      <ItemRef ItemOID="DM.COUNTRY"
        OrderNumber="18"
        Role="RESULT QUALIFIER"
        Mandatory="YES"/>
      <ItemRef ItemOID="DM.DMDTC"
        OrderNumber="19"
        Role="TIMING"
        Mandatory="NO"/>
      <ItemRef ItemOID="DM.DMDY"
        OrderNumber="20"
        Role="TIMING"
        Mandatory="NO"/>
      <!-- **************************************************** -->
      <!-- def:leaf details for hypertext linking the dataset   -->
      <!-- **************************************************** -->
      <def:leaf ID="Location.DM" xlink:href="DM.csv">
        <def:title>DM.csv </def:title>
      </def:leaf>
    </ItemGroupDef>
    <!-- ******************************************* -->
    <!-- DS             ItemGroupDef INFORMATION *** -->
    <!-- ******************************************* -->
    <ItemGroupDef OID="DS"
      Name="DS"
      Repeating="Yes"
      IsReferenceData="No"
      Purpose="Tabulation "
      def:Label="Disposition"
      def:Structure="Events - One record per disposition status or protocol milestone per subject"
      def:DomainKeys="USUBJID, DSTERM, DSSEQ "
      def:Class="Events"
      def:ArchiveLocationID="Location.DS">
      <ItemRef ItemOID="STUDYID"
        OrderNumber="1"
        Role="IDENTIFIER"
        Mandatory="YES"/>
      <ItemRef ItemOID="DOMAIN"
        OrderNumber="2"
        Role="IDENTIFIER"
        Mandatory="YES"/>
      <ItemRef ItemOID="USUBJID"
        OrderNumber="3"
        Role="IDENTIFIER"
        Mandatory="YES"/>
      <ItemRef ItemOID="DS.DSDY"
        OrderNumber="3.2"
        Role="TIMING"
        Mandatory="NO"/>
      <ItemRef ItemOID="DS.DSSEQ"
        OrderNumber="4"
        Role="IDENTIFIER"
        Mandatory="YES"/>
      <ItemRef ItemOID="DS.DSTERM"
        OrderNumber="8"
        Role="TOPIC"
        Mandatory="YES"/>
      <ItemRef ItemOID="DS.DSOCCUR"
        OrderNumber="8.5"
        Role="QUALIFIER"
        Mandatory="NO"/>
      <ItemRef ItemOID="DS.DSDECOD"
        OrderNumber="9"
        Role="SYNONYM QUALIFIER"
        Mandatory="YES"/>
      <ItemRef ItemOID="DS.DSCAT"
        OrderNumber="10"
        Role="GROUPING QUALIFIER"
        Mandatory="NO"/>
      <ItemRef ItemOID="DS.VISIT"
        OrderNumber="12"
        Role="TIMING"
        Mandatory="NO"/>
      <ItemRef ItemOID="DS.VISITNUM"
        OrderNumber="13"
        Role="TIMING"
        Mandatory="NO"/>
      <ItemRef ItemOID="DS.EPOCH"
        OrderNumber="15"
        Role="TIMING"
        Mandatory="NO"/>
      <ItemRef ItemOID="DS.DSDTC"
        OrderNumber="16"
        Role="TIMING"
        Mandatory="NO"/>
      <ItemRef ItemOID="DS.DSSTDTC"
        OrderNumber="17"
        Role="TIMING"
        Mandatory="YES"/>
      <ItemRef ItemOID="DS.DSSTDY"
        OrderNumber="18"
        Role="TIMING"
        Mandatory="NO"/>
      <!-- **************************************************** -->
      <!-- def:leaf details for hypertext linking the dataset   -->
      <!-- **************************************************** -->
      <def:leaf ID="Location.DS" xlink:href="DS.csv">
        <def:title>DS.csv </def:title>
      </def:leaf>
    </ItemGroupDef>
    <!-- ******************************************* -->
    <!-- EX             ItemGroupDef INFORMATION *** -->
    <!-- ******************************************* -->
    <ItemGroupDef OID="EX"
      Name="EX"
      Repeating="Yes"
      IsReferenceData="No"
      Purpose="Tabulation "
      def:Label="Exposure"
      def:Structure="Interventions - One record per constant dosing interval per subject"
      def:DomainKeys="USUBJID, EXTRT, EXSEQ "
      def:Class="Interventions"
      def:ArchiveLocationID="Location.EX">
      <ItemRef ItemOID="STUDYID"
        OrderNumber="1"
        Role="IDENTIFIER"
        Mandatory="YES"/>
      <ItemRef ItemOID="DOMAIN"
        OrderNumber="2"
        Role="IDENTIFIER"
        Mandatory="YES"/>
      <ItemRef ItemOID="USUBJID"
        OrderNumber="3"
        Role="IDENTIFIER"
        Mandatory="YES"/>
      <ItemRef ItemOID="EX.EXDTC"
        OrderNumber="3.1"
        Role="TIMING"
        Mandatory="NO"/>
      <ItemRef ItemOID="EX.EXDY"
        OrderNumber="3.2"
        Role="TIMING"
        Mandatory="NO"/>
      <ItemRef ItemOID="EX.EPOCH"
        OrderNumber="3.3"
        Role="TIMING"
        Mandatory="NO"/>
      <ItemRef ItemOID="EX.VISIT"
        OrderNumber="3.4"
        Role="TIMING"
        Mandatory="NO"/>
      <ItemRef ItemOID="EX.VISITNUM"
        OrderNumber="3.5"
        Role="TIMING"
        Mandatory="NO"/>
      <ItemRef ItemOID="EX.EXSEQ"
        OrderNumber="4"
        Role="IDENTIFIER"
        Mandatory="YES"/>
      <ItemRef ItemOID="EX.EXTRT"
        OrderNumber="7"
        Role="TOPIC"
        Mandatory="YES"/>
      <ItemRef ItemOID="EX.EXCAT"
        OrderNumber="8"
        Role="GROUPING QUALIFIER"
        Mandatory="NO"/>
      <ItemRef ItemOID="EX.EXDOSE"
        OrderNumber="10"
        Role="RECORD QUALIFIER"
        Mandatory="YES"/>
      <ItemRef ItemOID="EX.EXDOSU"
        OrderNumber="12"
        Role="VARIABLE QUALIFIER"
        Mandatory="YES"/>
      <ItemRef ItemOID="EX.EXDOSFRM"
        OrderNumber="13"
        Role="VARIABLE QUALIFIER"
        Mandatory="YES"/>
      <ItemRef ItemOID="EX.EXROUTE"
        OrderNumber="17"
        Role="VARIABLE QUALIFIER"
        Mandatory="NO"/>
      <ItemRef ItemOID="EX.EXSTDTC"
        OrderNumber="23"
        Role="TIMING"
        Mandatory="YES"/>
      <ItemRef ItemOID="EX.EXENDTC"
        OrderNumber="24"
        Role="TIMING"
        Mandatory="NO"/>
      <ItemRef ItemOID="EX.EXSTDY"
        OrderNumber="25"
        Role="TIMING"
        Mandatory="NO"/>
      <ItemRef ItemOID="EX.EXENDY"
        OrderNumber="26"
        Role="TIMING"
        Mandatory="NO"/>
      <!-- **************************************************** -->
      <!-- def:leaf details for hypertext linking the dataset   -->
      <!-- **************************************************** -->
      <def:leaf ID="Location.EX" xlink:href="EX.csv">
        <def:title>EX.csv </def:title>
      </def:leaf>
    </ItemGroupDef>
    <!-- ******************************************* -->
    <!-- IE             ItemGroupDef INFORMATION *** -->
    <!-- ******************************************* -->
    <ItemGroupDef OID="IE"
      Name="IE"
      Repeating="Yes"
      IsReferenceData="No"
      Purpose="Tabulation "
      def:Label="Inclusion/Exclusion Exceptions"
      def:Structure="Findings - One record per event per subject"
      def:DomainKeys="USUBJID, IETEST, IESEQ "
      def:Class="Findings"
      def:ArchiveLocationID="Location.IE">
      <ItemRef ItemOID="STUDYID"
        OrderNumber="1"
        Role="IDENTIFIER"
        Mandatory="YES"/>
      <ItemRef ItemOID="DOMAIN"
        OrderNumber="2"
        Role="IDENTIFIER"
        Mandatory="YES"/>
      <ItemRef ItemOID="USUBJID"
        OrderNumber="3"
        Role="IDENTIFIER"
        Mandatory="YES"/>
      <ItemRef ItemOID="IE.EPOCH"
        OrderNumber="3.3"
        Role="TIMING"
        Mandatory="NO"/>
      <ItemRef ItemOID="IE.IESEQ"
        OrderNumber="4"
        Role="IDENTIFIER"
        Mandatory="YES"/>
      <ItemRef ItemOID="IE.IETESTCD"
        OrderNumber="6"
        Role="TOPIC"
        Mandatory="YES"/>
      <ItemRef ItemOID="IE.IETEST"
        OrderNumber="7"
        Role="SYNONYM QUALIFIER"
        Mandatory="YES"/>
      <ItemRef ItemOID="IE.IECAT"
        OrderNumber="8"
        Role="GROUPING QUALIFIER"
        Mandatory="YES"/>
      <ItemRef ItemOID="IE.IEORRES"
        OrderNumber="10"
        Role="RESULT QUALIFIER"
        Mandatory="YES"/>
      <ItemRef ItemOID="IE.IESTRESC"
        OrderNumber="11"
        Role="RESULT QUALIFIER"
        Mandatory="YES"/>
      <ItemRef ItemOID="IE.VISIT"
        OrderNumber="12"
        Role="TIMING"
        Mandatory="NO"/>
      <ItemRef ItemOID="IE.VISITNUM"
        OrderNumber="13"
        Role="TIMING"
        Mandatory="NO"/>
      <ItemRef ItemOID="IE.IEDTC"
        OrderNumber="15"
        Role="TIMING"
        Mandatory="NO"/>
      <ItemRef ItemOID="IE.IEDY"
        OrderNumber="16"
        Role="TIMING"
        Mandatory="NO"/>
      <!-- **************************************************** -->
      <!-- def:leaf details for hypertext linking the dataset   -->
      <!-- **************************************************** -->
      <def:leaf ID="Location.IE" xlink:href="IE.csv">
        <def:title>IE.csv </def:title>
      </def:leaf>
    </ItemGroupDef>
    <!-- ******************************************* -->
    <!-- LB             ItemGroupDef INFORMATION *** -->
    <!-- ******************************************* -->
    <ItemGroupDef OID="LB"
      Name="LB"
      Repeating="Yes"
      IsReferenceData="No"
      Purpose="Tabulation "
      def:Label="Laboratory Tests"
      def:Structure="Findings - One record per lab test per subject"
      def:DomainKeys="USUBJID, LBTESTCD, VISITNUM, LBSEQ "
      def:Class="Findings"
      def:ArchiveLocationID="Location.LB">
      <ItemRef ItemOID="STUDYID"
        OrderNumber="1"
        Role="IDENTIFIER"
        Mandatory="YES"/>
      <ItemRef ItemOID="DOMAIN"
        OrderNumber="2"
        Role="IDENTIFIER"
        Mandatory="YES"/>
      <ItemRef ItemOID="USUBJID"
        OrderNumber="3"
        Role="IDENTIFIER"
        Mandatory="YES"/>
      <ItemRef ItemOID="LB.EPOCH"
        OrderNumber="3.3"
        Role="TIMING"
        Mandatory="NO"/>
      <ItemRef ItemOID="LB.LBSEQ"
        OrderNumber="4"
        Role="IDENTIFIER"
        Mandatory="YES"/>
      <ItemRef ItemOID="LB.LBTESTCD"
        OrderNumber="8"
        Role="TOPIC"
        Mandatory="YES"/>
      <ItemRef ItemOID="LB.LBTEST"
        OrderNumber="9"
        Role="SYNONYM QUALIFIER"
        Mandatory="YES"/>
      <ItemRef ItemOID="LB.LBCAT"
        OrderNumber="10"
        Role="GROUPING QUALIFIER"
        Mandatory="YES"/>
      <ItemRef ItemOID="LB.LBORRES"
        OrderNumber="12"
        Role="RESULT QUALIFIER"
        Mandatory="YES"/>
      <ItemRef ItemOID="LB.LBORRESU"
        OrderNumber="13"
        Role="VARIABLE QUALIFIER"
        Mandatory="YES"/>
      <ItemRef ItemOID="LB.LBORNRLO"
        OrderNumber="14"
        Role="VARIABLE QUALIFIER"
        Mandatory="YES"/>
      <ItemRef ItemOID="LB.LBORNRHI"
        OrderNumber="15"
        Role="VARIABLE QUALIFIER"
        Mandatory="YES"/>
      <ItemRef ItemOID="LB.LBSTRESC"
        OrderNumber="16"
        Role="RESULT QUALIFIER"
        Mandatory="YES"/>
      <ItemRef ItemOID="LB.LBSTRESN"
        OrderNumber="18"
        Role="RESULT QUALIFIER"
        Mandatory="YES"/>
      <ItemRef ItemOID="LB.LBSTRESU"
        OrderNumber="19"
        Role="VARIABLE QUALIFIER"
        Mandatory="YES"/>
      <ItemRef ItemOID="LB.LBSTNRLO"
        OrderNumber="20"
        Role="VARIABLE QUALIFIER"
        Mandatory="YES"/>
      <ItemRef ItemOID="LB.LBSTNRHI"
        OrderNumber="21"
        Role="VARIABLE QUALIFIER"
        Mandatory="YES"/>
      <ItemRef ItemOID="LB.LBNRIND"
        OrderNumber="22"
        Role="VARIABLE QUALIFIER"
        Mandatory="YES"/>
      <ItemRef ItemOID="LB.LBSTAT"
        OrderNumber="23"
        Role="RECORD QUALIFIER"
        Mandatory="NO"/>
      <ItemRef ItemOID="LB.LBREASND"
        OrderNumber="24"
        Role="RECORD QUALIFIER"
        Mandatory="NO"/>
      <ItemRef ItemOID="LB.LBSPEC"
        OrderNumber="27"
        Role="RECORD QUALIFIER"
        Mandatory="NO"/>
      <ItemRef ItemOID="LB.LBMETHOD"
        OrderNumber="29"
        Role="RECORD QUALIFIER"
        Mandatory="NO"/>
      <ItemRef ItemOID="LB.LBBLFL"
        OrderNumber="30"
        Role="RECORD QUALIFIER"
        Mandatory="YES"/>
      <ItemRef ItemOID="LB.VISIT"
        OrderNumber="35"
        Role="TIMING"
        Mandatory="NO"/>
      <ItemRef ItemOID="LB.VISITNUM"
        OrderNumber="36"
        Role="TIMING"
        Mandatory="YES"/>
      <ItemRef ItemOID="LB.LBDTC"
        OrderNumber="38"
        Role="TIMING"
        Mandatory="NO"/>
      <ItemRef ItemOID="LB.LBDY"
        OrderNumber="40"
        Role="TIMING"
        Mandatory="NO"/>
      <!-- **************************************************** -->
      <!-- def:leaf details for hypertext linking the dataset   -->
      <!-- **************************************************** -->
      <def:leaf ID="Location.LB" xlink:href="LB.csv">
        <def:title>LB.csv </def:title>
      </def:leaf>
    </ItemGroupDef>
    <!-- ******************************************* -->
    <!-- MH             ItemGroupDef INFORMATION *** -->
    <!-- ******************************************* -->
    <ItemGroupDef OID="MH"
      Name="MH"
      Repeating="Yes"
      IsReferenceData="No"
      Purpose="Tabulation "
      def:Label="Medical History"
      def:Structure="Events - One record per event per subject"
      def:DomainKeys="USUBJID, MHTERM, MHSEQ "
      def:Class="Events"
      def:ArchiveLocationID="Location.MH">
      <ItemRef ItemOID="STUDYID"
        OrderNumber="1"
        Role="IDENTIFIER"
        Mandatory="YES"/>
      <ItemRef ItemOID="DOMAIN"
        OrderNumber="2"
        Role="IDENTIFIER"
        Mandatory="YES"/>
      <ItemRef ItemOID="USUBJID"
        OrderNumber="3"
        Role="IDENTIFIER"
        Mandatory="YES"/>
      <ItemRef ItemOID="MH.EPOCH"
        OrderNumber="3.3"
        Role="TIMING"
        Mandatory="NO"/>
      <ItemRef ItemOID="MH.MHSEQ"
        OrderNumber="4"
        Role="IDENTIFIER"
        Mandatory="YES"/>
      <ItemRef ItemOID="MH.MHSPID"
        OrderNumber="7"
        Role="IDENTIFIER"
        Mandatory="NO"/>
      <ItemRef ItemOID="MH.MHTERM"
        OrderNumber="8"
        Role="TOPIC"
        Mandatory="YES"/>
      <ItemRef ItemOID="MH.MHOCCUR"
        OrderNumber="13"
        Role="RECORD QUALIFIER"
        Mandatory="NO"/>
      <ItemRef ItemOID="MH.MHSTAT"
        OrderNumber="14"
        Role="RECORD QUALIFIER"
        Mandatory="NO"/>
      <ItemRef ItemOID="MH.VISIT"
        OrderNumber="17"
        Role="TIMING"
        Mandatory="NO"/>
      <ItemRef ItemOID="MH.VISITNUM"
        OrderNumber="18"
        Role="TIMING"
        Mandatory="NO"/>
      <ItemRef ItemOID="MH.MHDTC"
        OrderNumber="20"
        Role="TIMING"
        Mandatory="NO"/>
      <ItemRef ItemOID="MH.MHDY"
        OrderNumber="23"
        Role="TIMING"
        Mandatory="NO"/>
      <ItemRef ItemOID="MH.MHENRF"
        OrderNumber="24"
        Role="TIMING"
        Mandatory="NO"/>
      <!-- **************************************************** -->
      <!-- def:leaf details for hypertext linking the dataset   -->
      <!-- **************************************************** -->
      <def:leaf ID="Location.MH" xlink:href="MH.csv">
        <def:title>MH.csv </def:title>
      </def:leaf>
    </ItemGroupDef>
    <!-- ******************************************* -->
    <!-- PE             ItemGroupDef INFORMATION *** -->
    <!-- ******************************************* -->
    <ItemGroupDef OID="PE"
      Name="PE"
      Repeating="Yes"
      IsReferenceData="No"
      Purpose="Tabulation "
      def:Label="Physical Examination"
      def:Structure="Findings - One record per event per subject"
      def:DomainKeys="USUBJID, PETEST, PESEQ "
      def:Class="Findings"
      def:ArchiveLocationID="Location.PE">
      <ItemRef ItemOID="STUDYID"
        OrderNumber="1"
        Role="IDENTIFIER"
        Mandatory="YES"/>
      <ItemRef ItemOID="DOMAIN"
        OrderNumber="2"
        Role="IDENTIFIER"
        Mandatory="YES"/>
      <ItemRef ItemOID="USUBJID"
        OrderNumber="3"
        Role="IDENTIFIER"
        Mandatory="YES"/>
      <ItemRef ItemOID="PE.EPOCH"
        OrderNumber="3.3"
        Role="TIMING"
        Mandatory="NO"/>
      <ItemRef ItemOID="PE.PESEQ"
        OrderNumber="4"
        Role="IDENTIFIER"
        Mandatory="YES"/>
      <ItemRef ItemOID="PE.PETESTCD"
        OrderNumber="7"
        Role="TOPIC"
        Mandatory="YES"/>
      <ItemRef ItemOID="PE.PETEST"
        OrderNumber="8"
        Role="SYNONYM QUALIFIER"
        Mandatory="YES"/>
      <ItemRef ItemOID="PE.PEORRES"
        OrderNumber="14"
        Role="RESULT QUALIFIER"
        Mandatory="YES"/>
      <ItemRef ItemOID="PE.PESTRESC"
        OrderNumber="16"
        Role="RESULT QUALIFIER"
        Mandatory="YES"/>
      <ItemRef ItemOID="PE.PESTRESN"
        OrderNumber="17"
        Role="RESULT QUALIFIER"
        Mandatory="YES"/>
      <ItemRef ItemOID="PE.PESTRESU"
        OrderNumber="18"
        Role="VARIABLE QUALIFIER"
        Mandatory="YES"/>
      <ItemRef ItemOID="PE.PESTAT"
        OrderNumber="20"
        Role="RECORD QUALIFIER"
        Mandatory="NO"/>
      <ItemRef ItemOID="PE.PEREASND"
        OrderNumber="21"
        Role="RECORD QUALIFIER"
        Mandatory="NO"/>
      <ItemRef ItemOID="PE.PEBLFL"
        OrderNumber="22"
        Role="RECORD QUALIFIER"
        Mandatory="YES"/>
      <ItemRef ItemOID="PE.PEEVAL"
        OrderNumber="23"
        Role="RECORD QUALIFIER"
        Mandatory="NO"/>
      <ItemRef ItemOID="PE.VISIT"
        OrderNumber="24"
        Role="TIMING"
        Mandatory="NO"/>
      <ItemRef ItemOID="PE.VISITNUM"
        OrderNumber="25"
        Role="TIMING"
        Mandatory="YES"/>
      <ItemRef ItemOID="PE.PEDTC"
        OrderNumber="27"
        Role="TIMING"
        Mandatory="YES"/>
      <ItemRef ItemOID="PE.PEDY"
        OrderNumber="28"
        Role="TIMING"
        Mandatory="NO"/>
      <!-- **************************************************** -->
      <!-- def:leaf details for hypertext linking the dataset   -->
      <!-- **************************************************** -->
      <def:leaf ID="Location.PE" xlink:href="PE.csv">
        <def:title>PE.csv </def:title>
      </def:leaf>
    </ItemGroupDef>
    <!-- ******************************************* -->
    <!-- QS             ItemGroupDef INFORMATION *** -->
    <!-- ******************************************* -->
    <ItemGroupDef OID="QS"
      Name="QS"
      Repeating="Yes"
      IsReferenceData="No"
      Purpose="Tabulation "
      def:Label="Questionnaires"
      def:Structure="Findings - One record per question per subject"
      def:DomainKeys="USUBJID, QSTESTCD, QSSEQ "
      def:Class="Findings"
      def:ArchiveLocationID="Location.QS">
      <ItemRef ItemOID="STUDYID"
        OrderNumber="1"
        Role="IDENTIFIER"
        Mandatory="YES"/>
      <ItemRef ItemOID="DOMAIN"
        OrderNumber="2"
        Role="IDENTIFIER"
        Mandatory="YES"/>
      <ItemRef ItemOID="USUBJID"
        OrderNumber="3"
        Role="IDENTIFIER"
        Mandatory="YES"/>
      <ItemRef ItemOID="QS.EPOCH"
        OrderNumber="3.3"
        Role="TIMING"
        Mandatory="NO"/>
      <ItemRef ItemOID="QS.QSEVAL"
        OrderNumber="3.6"
        Role="RECORD QUALIFIER"
        Mandatory="NO"/>
      <ItemRef ItemOID="QS.QSSEQ"
        OrderNumber="4"
        Role="IDENTIFIER"
        Mandatory="YES"/>
      <ItemRef ItemOID="QS.QSTESTCD"
        OrderNumber="7"
        Role="TOPIC"
        Mandatory="YES"/>
      <ItemRef ItemOID="QS.QSTEST"
        OrderNumber="8"
        Role="SYNONYM QUALIFIER"
        Mandatory="YES"/>
      <ItemRef ItemOID="QS.QSCAT"
        OrderNumber="9"
        Role="GROUPING QUALIFIER"
        Mandatory="YES"/>
      <ItemRef ItemOID="QS.QSSCAT"
        OrderNumber="10"
        Role="GROUPING QUALIFIER"
        Mandatory="NO"/>
      <ItemRef ItemOID="QS.QSORRES"
        OrderNumber="11"
        Role="RESULT QUALIFIER"
        Mandatory="YES"/>
      <ItemRef ItemOID="QS.QSSTRESC"
        OrderNumber="13"
        Role="RESULT QUALIFIER"
        Mandatory="YES"/>
      <ItemRef ItemOID="QS.QSSTRESN"
        OrderNumber="14"
        Role="RESULT QUALIFIER"
        Mandatory="NO"/>
      <ItemRef ItemOID="QS.QSBLFL"
        OrderNumber="18"
        Role="RECORD QUALIFIER"
        Mandatory="YES"/>
      <ItemRef ItemOID="QS.VISIT"
        OrderNumber="20"
        Role="TIMING"
        Mandatory="NO"/>
      <ItemRef ItemOID="QS.VISITNUM"
        OrderNumber="21"
        Role="TIMING"
        Mandatory="YES"/>
      <ItemRef ItemOID="QS.QSDTC"
        OrderNumber="23"
        Role="TIMING"
        Mandatory="YES"/>
      <ItemRef ItemOID="QS.QSDY"
        OrderNumber="24"
        Role="TIMING"
        Mandatory="NO"/>
      <ItemRef ItemOID="QS.QSEVLINT"
        OrderNumber="29"
        Role="TIMING"
        Mandatory="NO"/>
      <!-- **************************************************** -->
      <!-- def:leaf details for hypertext linking the dataset   -->
      <!-- **************************************************** -->
      <def:leaf ID="Location.QS" xlink:href="QS.csv">
        <def:title>QS.csv </def:title>
      </def:leaf>
    </ItemGroupDef>
    <!-- ******************************************* -->
    <!-- RP             ItemGroupDef INFORMATION *** -->
    <!-- ******************************************* -->
    <ItemGroupDef OID="RP"
      Name="RP"
      Repeating="Yes"
      IsReferenceData="No"
      Purpose="Tabulation "
      def:Label="Reproduction"
      def:Structure="Findings - One record per question per subject"
      def:DomainKeys="USUBJID, RPTESTCD, RPSEQ "
      def:Class="Findings"
      def:ArchiveLocationID="Location.RP">
      <ItemRef ItemOID="STUDYID"
        OrderNumber="1"
        Role="IDENTIFIER"
        Mandatory="YES"/>
      <ItemRef ItemOID="DOMAIN"
        OrderNumber="2"
        Role="IDENTIFIER"
        Mandatory="YES"/>
      <ItemRef ItemOID="USUBJID"
        OrderNumber="3"
        Role="IDENTIFIER"
        Mandatory="YES"/>
      <ItemRef ItemOID="RP.RPDTC"
        OrderNumber="3.1"
        Role="TIMING"
        Mandatory="NO"/>
      <ItemRef ItemOID="RP.RPDY"
        OrderNumber="3.2"
        Role="TIMING"
        Mandatory="NO"/>
      <ItemRef ItemOID="RP.EPOCH"
        OrderNumber="3.3"
        Role="TIMING"
        Mandatory="NO"/>
      <ItemRef ItemOID="RP.VISIT"
        OrderNumber="3.4"
        Role="TIMING"
        Mandatory="NO"/>
      <ItemRef ItemOID="RP.VISITNUM"
        OrderNumber="3.5"
        Role="TIMING"
        Mandatory="NO"/>
      <ItemRef ItemOID="RP.RPSEQ"
        OrderNumber="4"
        Role="IDENTIFIER"
        Mandatory="YES"/>
      <ItemRef ItemOID="RP.RPTESTCD"
        OrderNumber="5"
        Role="TOPIC"
        Mandatory="YES"/>
      <ItemRef ItemOID="RP.RPTEST"
        OrderNumber="6"
        Role="SYNONYM QUALIFIER"
        Mandatory="YES"/>
      <ItemRef ItemOID="RP.RPORRES"
        OrderNumber="7"
        Role="RESULT QUALIFIER"
        Mandatory="YES"/>
      <!-- **************************************************** -->
      <!-- def:leaf details for hypertext linking the dataset   -->
      <!-- **************************************************** -->
      <def:leaf ID="Location.RP" xlink:href="RP.csv">
        <def:title>RP.csv </def:title>
      </def:leaf>
    </ItemGroupDef>
    <!-- ******************************************* -->
    <!-- SC             ItemGroupDef INFORMATION *** -->
    <!-- ******************************************* -->
    <ItemGroupDef OID="SC"
      Name="SC"
      Repeating="Yes"
      IsReferenceData="No"
      Purpose="Tabulation "
      def:Label="Subject Characteristics"
      def:Structure="Findings - One record per subject characteristic"
      def:DomainKeys="USUBJID, SCTESTCD "
      def:Class="Findings"
      def:ArchiveLocationID="Location.SC">
      <ItemRef ItemOID="STUDYID"
        OrderNumber="1"
        Role="IDENTIFIER"
        Mandatory="YES"/>
      <ItemRef ItemOID="DOMAIN"
        OrderNumber="2"
        Role="IDENTIFIER"
        Mandatory="YES"/>
      <ItemRef ItemOID="USUBJID"
        OrderNumber="3"
        Role="IDENTIFIER"
        Mandatory="YES"/>
      <ItemRef ItemOID="SC.SCSEQ"
        OrderNumber="4"
        Role="IDENTIFIER"
        Mandatory="YES"/>
      <ItemRef ItemOID="SC.SCTESTCD"
        OrderNumber="7"
        Role="TOPIC"
        Mandatory="YES"/>
      <ItemRef ItemOID="SC.SCTEST"
        OrderNumber="8"
        Role="SYNONYM QUALIFIER"
        Mandatory="YES"/>
      <ItemRef ItemOID="SC.SCORRES"
        OrderNumber="11"
        Role="RESULT QUALIFIER"
        Mandatory="YES"/>
      <ItemRef ItemOID="SC.SCSTRESC"
        OrderNumber="13"
        Role="RESULT QUALIFIER"
        Mandatory="YES"/>
      <ItemRef ItemOID="SC.SCSTRESN"
        OrderNumber="14"
        Role="RESULT QUALIFIER"
        Mandatory="NO"/>
      <ItemRef ItemOID="SC.SCDTC"
        OrderNumber="18"
        Role="TIMING"
        Mandatory="YES"/>
      <ItemRef ItemOID="SC.SCDY"
        OrderNumber="19"
        Role="TIMING"
        Mandatory="NO"/>
      <!-- **************************************************** -->
      <!-- def:leaf details for hypertext linking the dataset   -->
      <!-- **************************************************** -->
      <def:leaf ID="Location.SC" xlink:href="SC.csv">
        <def:title>SC.csv </def:title>
      </def:leaf>
    </ItemGroupDef>
    <!-- ******************************************* -->
    <!-- SE             ItemGroupDef INFORMATION *** -->
    <!-- ******************************************* -->
    <ItemGroupDef OID="SE"
      Name="SE"
      Repeating="Yes"
      IsReferenceData="No"
      Purpose="Tabulation "
      def:Label="Subject Elements"
      def:Structure="Trial Design - One record per element per subject"
      def:DomainKeys="USUBJID, ELEMENT "
      def:Class="Trial Design"
      def:ArchiveLocationID="Location.SE">
      <ItemRef ItemOID="STUDYID"
        OrderNumber="1"
        Role="IDENTIFIER"
        Mandatory="YES"/>
      <ItemRef ItemOID="DOMAIN"
        OrderNumber="2"
        Role="IDENTIFIER"
        Mandatory="YES"/>
      <ItemRef ItemOID="USUBJID"
        OrderNumber="3"
        Role="IDENTIFIER"
        Mandatory="YES"/>
      <ItemRef ItemOID="SE.SESEQ"
        OrderNumber="4"
        Role="IDENTIFIER"
        Mandatory="YES"/>
      <ItemRef ItemOID="SE.ETCD"
        OrderNumber="5"
        Role="TOPIC"
        Mandatory="YES"/>
      <ItemRef ItemOID="SE.ELEMENT"
        OrderNumber="6"
        Role="SYNONYM QUALIFIER"
        Mandatory="NO"/>
      <ItemRef ItemOID="SE.SESTDTC"
        OrderNumber="7"
        Role="TIMING"
        Mandatory="YES"/>
      <ItemRef ItemOID="SE.SEENDTC"
        OrderNumber="8"
        Role="TIMING"
        Mandatory="YES"/>
      <!-- **************************************************** -->
      <!-- def:leaf details for hypertext linking the dataset   -->
      <!-- **************************************************** -->
      <def:leaf ID="Location.SE" xlink:href="SE.csv">
        <def:title>SE.csv </def:title>
      </def:leaf>
    </ItemGroupDef>
    <!-- ******************************************* -->
    <!-- SU             ItemGroupDef INFORMATION *** -->
    <!-- ******************************************* -->
    <ItemGroupDef OID="SU"
      Name="SU"
      Repeating="Yes"
      IsReferenceData="No"
      Purpose="Tabulation "
      def:Label="Substance Use"
      def:Structure="Interventions - One record per substance use type per subject"
      def:DomainKeys="USUBJID, SUTRT, SUSEQ "
      def:Class="Interventions"
      def:ArchiveLocationID="Location.SU">
      <ItemRef ItemOID="STUDYID"
        OrderNumber="1"
        Role="IDENTIFIER"
        Mandatory="YES"/>
      <ItemRef ItemOID="DOMAIN"
        OrderNumber="2"
        Role="IDENTIFIER"
        Mandatory="YES"/>
      <ItemRef ItemOID="USUBJID"
        OrderNumber="3"
        Role="IDENTIFIER"
        Mandatory="YES"/>
      <ItemRef ItemOID="SU.SUDTC"
        OrderNumber="3.1"
        Role="TIMING"
        Mandatory="NO"/>
      <ItemRef ItemOID="SU.SUDY"
        OrderNumber="3.2"
        Role="TIMING"
        Mandatory="NO"/>
      <ItemRef ItemOID="SU.SUSEQ"
        OrderNumber="4"
        Role="IDENTIFIER"
        Mandatory="YES"/>
      <ItemRef ItemOID="SU.SUTRT"
        OrderNumber="7"
        Role="TOPIC"
        Mandatory="YES"/>
      <ItemRef ItemOID="SU.SUCAT"
        OrderNumber="10"
        Role="GROUPING QUALIFIER"
        Mandatory="NO"/>
      <ItemRef ItemOID="SU.SUROUTE"
        OrderNumber="23"
        Role="VARIABLE QUALIFIER"
        Mandatory="NO"/>
      <ItemRef ItemOID="SU.VISIT"
        OrderNumber="24"
        Role="TIMING"
        Mandatory="NO"/>
      <ItemRef ItemOID="SU.VISITNUM"
        OrderNumber="25"
        Role="TIMING"
        Mandatory="YES"/>
      <ItemRef ItemOID="SU.SUEVLINT"
        OrderNumber="29.1"
        Role="TIMING"
        Mandatory="NO"/>
      <ItemRef ItemOID="SU.SUDUR"
        OrderNumber="31"
        Role="TIMING"
        Mandatory="NO"/>
      <!-- **************************************************** -->
      <!-- def:leaf details for hypertext linking the dataset   -->
      <!-- **************************************************** -->
      <def:leaf ID="Location.SU" xlink:href="SU.csv">
        <def:title>SU.csv </def:title>
      </def:leaf>
    </ItemGroupDef>
    <!-- ******************************************* -->
    <!-- SUPPAE         ItemGroupDef INFORMATION *** -->
    <!-- ******************************************* -->
    <ItemGroupDef OID="SUPPAE"
      Name="SUPPAE"
      Repeating="Yes"
      IsReferenceData="No"
      Purpose="Tabulation"
      def:Label="AE - Supplemental Qualifiers"
      def:Structure="Supplemental Qualifier - One record per qualifier"
      def:DomainKeys="USUBJID, IDVAR, IDVARVAL"
      def:Class="Supplemental Qualifier"
      def:ArchiveLocationID="Location.SUPPAE">
      <ItemRef ItemOID="STUDYID"
        OrderNumber="1"
        Role="SUPPLEMENTAL QUALIFIER"
        Mandatory="YES"/>
      <ItemRef ItemOID="SUPPAE.RDOMAIN"
        OrderNumber="2"
        Role="SUPPLEMENTAL QUALIFIER"
        Mandatory="YES"/>
      <ItemRef ItemOID="USUBJID"
        OrderNumber="3"
        Role="SUPPLEMENTAL QUALIFIER"
        Mandatory="YES"/>
      <ItemRef ItemOID="SUPPAE.IDVAR"
        OrderNumber="4"
        Role="SUPPLEMENTAL QUALIFIER"
        Mandatory="YES"/>
      <ItemRef ItemOID="SUPPAE.IDVARVAL"
        OrderNumber="5"
        Role="SUPPLEMENTAL QUALIFIER"
        Mandatory="YES"/>
      <ItemRef ItemOID="SUPPAE.QNAM"
        OrderNumber="6"
        Role="SUPPLEMENTAL QUALIFIER"
        Mandatory="YES"/>
      <ItemRef ItemOID="SUPPAE.QLABEL"
        OrderNumber="7"
        Role="SUPPLEMENTAL QUALIFIER"
        Mandatory="YES"/>
      <ItemRef ItemOID="SUPPAE.QVAL"
        OrderNumber="8"
        Role="SUPPLEMENTAL QUALIFIER"
        Mandatory="YES"/>
      <ItemRef ItemOID="SUPPAE.QORIG"
        OrderNumber="9"
        Role="SUPPLEMENTAL QUALIFIER"
        Mandatory="YES"/>
      <!-- **************************************************** -->
      <!-- def:leaf details for hypertext linking the dataset   -->
      <!-- **************************************************** -->
      <def:leaf ID="Location.SUPPAE" xlink:href="SUPPAE.csv">
        <def:title>SUPPAE.csv </def:title>
      </def:leaf>
    </ItemGroupDef>
    <!-- ******************************************* -->
    <!-- SUPPCM         ItemGroupDef INFORMATION *** -->
    <!-- ******************************************* -->
    <ItemGroupDef OID="SUPPCM"
      Name="SUPPCM"
      Repeating="Yes"
      IsReferenceData="No"
      Purpose="Tabulation"
      def:Label="CM - Supplemental Qualifiers"
      def:Structure="Supplemental Qualifier - One record per qualifier"
      def:DomainKeys="USUBJID, IDVAR, IDVARVAL"
      def:Class="Supplemental Qualifier"
      def:ArchiveLocationID="Location.SUPPCM">
      <ItemRef ItemOID="STUDYID"
        OrderNumber="1"
        Role="SUPPLEMENTAL QUALIFIER"
        Mandatory="YES"/>
      <ItemRef ItemOID="SUPPCM.RDOMAIN"
        OrderNumber="2"
        Role="SUPPLEMENTAL QUALIFIER"
        Mandatory="YES"/>
      <ItemRef ItemOID="USUBJID"
        OrderNumber="3"
        Role="SUPPLEMENTAL QUALIFIER"
        Mandatory="YES"/>
      <ItemRef ItemOID="SUPPCM.IDVAR"
        OrderNumber="4"
        Role="SUPPLEMENTAL QUALIFIER"
        Mandatory="YES"/>
      <ItemRef ItemOID="SUPPCM.IDVARVAL"
        OrderNumber="5"
        Role="SUPPLEMENTAL QUALIFIER"
        Mandatory="YES"/>
      <ItemRef ItemOID="SUPPCM.QNAM"
        OrderNumber="6"
        Role="SUPPLEMENTAL QUALIFIER"
        Mandatory="YES"/>
      <ItemRef ItemOID="SUPPCM.QLABEL"
        OrderNumber="7"
        Role="SUPPLEMENTAL QUALIFIER"
        Mandatory="YES"/>
      <ItemRef ItemOID="SUPPCM.QVAL"
        OrderNumber="8"
        Role="SUPPLEMENTAL QUALIFIER"
        Mandatory="YES"/>
      <ItemRef ItemOID="SUPPCM.QORIG"
        OrderNumber="9"
        Role="SUPPLEMENTAL QUALIFIER"
        Mandatory="YES"/>
      <ItemRef ItemOID="SUPPCM.QEVAL"
        OrderNumber="10"
        Role="SUPPLEMENTAL QUALIFIER"
        Mandatory="YES"/>
      <!-- **************************************************** -->
      <!-- def:leaf details for hypertext linking the dataset   -->
      <!-- **************************************************** -->
      <def:leaf ID="Location.SUPPCM" xlink:href="SUPPCM.csv">
        <def:title>SUPPCM.csv </def:title>
      </def:leaf>
    </ItemGroupDef>
    <!-- ******************************************* -->
    <!-- SUPPDS         ItemGroupDef INFORMATION *** -->
    <!-- ******************************************* -->
    <ItemGroupDef OID="SUPPDS"
      Name="SUPPDS"
      Repeating="Yes"
      IsReferenceData="No"
      Purpose="Tabulation"
      def:Label="DS - Supplemental Qualifiers"
      def:Structure="Supplemental Qualifier - One record per qualifier"
      def:DomainKeys="USUBJID, IDVAR, IDVARVAL"
      def:Class="Supplemental Qualifier"
      def:ArchiveLocationID="Location.SUPPDS">
      <ItemRef ItemOID="STUDYID"
        OrderNumber="1"
        Role="SUPPLEMENTAL QUALIFIER"
        Mandatory="YES"/>
      <ItemRef ItemOID="SUPPDS.RDOMAIN"
        OrderNumber="2"
        Role="SUPPLEMENTAL QUALIFIER"
        Mandatory="YES"/>
      <ItemRef ItemOID="USUBJID"
        OrderNumber="3"
        Role="SUPPLEMENTAL QUALIFIER"
        Mandatory="YES"/>
      <ItemRef ItemOID="SUPPDS.IDVAR"
        OrderNumber="4"
        Role="SUPPLEMENTAL QUALIFIER"
        Mandatory="YES"/>
      <ItemRef ItemOID="SUPPDS.IDVARVAL"
        OrderNumber="5"
        Role="SUPPLEMENTAL QUALIFIER"
        Mandatory="YES"/>
      <ItemRef ItemOID="SUPPDS.QNAM"
        OrderNumber="6"
        Role="SUPPLEMENTAL QUALIFIER"
        Mandatory="YES"/>
      <ItemRef ItemOID="SUPPDS.QLABEL"
        OrderNumber="7"
        Role="SUPPLEMENTAL QUALIFIER"
        Mandatory="YES"/>
      <ItemRef ItemOID="SUPPDS.QVAL"
        OrderNumber="8"
        Role="SUPPLEMENTAL QUALIFIER"
        Mandatory="YES"/>
      <ItemRef ItemOID="SUPPDS.QORIG"
        OrderNumber="9"
        Role="SUPPLEMENTAL QUALIFIER"
        Mandatory="YES"/>
      <ItemRef ItemOID="SUPPDS.QEVAL"
        OrderNumber="10"
        Role="SUPPLEMENTAL QUALIFIER"
        Mandatory="YES"/>
      <!-- **************************************************** -->
      <!-- def:leaf details for hypertext linking the dataset   -->
      <!-- **************************************************** -->
      <def:leaf ID="Location.SUPPDS" xlink:href="SUPPDS.csv">
        <def:title>SUPPDS.csv </def:title>
      </def:leaf>
    </ItemGroupDef>
    <!-- ******************************************* -->
    <!-- SUPPEX         ItemGroupDef INFORMATION *** -->
    <!-- ******************************************* -->
    <ItemGroupDef OID="SUPPEX"
      Name="SUPPEX"
      Repeating="Yes"
      IsReferenceData="No"
      Purpose="Tabulation"
      def:Label="EX - Supplemental Qualifiers"
      def:Structure="Supplemental Qualifier - One record per qualifier"
      def:DomainKeys="USUBJID, IDVAR, IDVARVAL"
      def:Class="Supplemental Qualifier"
      def:ArchiveLocationID="Location.SUPPEX">
      <ItemRef ItemOID="STUDYID"
        OrderNumber="1"
        Role="SUPPLEMENTAL QUALIFIER"
        Mandatory="YES"/>
      <ItemRef ItemOID="SUPPEX.RDOMAIN"
        OrderNumber="2"
        Role="SUPPLEMENTAL QUALIFIER"
        Mandatory="YES"/>
      <ItemRef ItemOID="USUBJID"
        OrderNumber="3"
        Role="SUPPLEMENTAL QUALIFIER"
        Mandatory="YES"/>
      <ItemRef ItemOID="SUPPEX.IDVAR"
        OrderNumber="4"
        Role="SUPPLEMENTAL QUALIFIER"
        Mandatory="YES"/>
      <ItemRef ItemOID="SUPPEX.IDVARVAL"
        OrderNumber="5"
        Role="SUPPLEMENTAL QUALIFIER"
        Mandatory="YES"/>
      <ItemRef ItemOID="SUPPEX.QNAM"
        OrderNumber="6"
        Role="SUPPLEMENTAL QUALIFIER"
        Mandatory="YES"/>
      <ItemRef ItemOID="SUPPEX.QLABEL"
        OrderNumber="7"
        Role="SUPPLEMENTAL QUALIFIER"
        Mandatory="YES"/>
      <ItemRef ItemOID="SUPPEX.QVAL"
        OrderNumber="8"
        Role="SUPPLEMENTAL QUALIFIER"
        Mandatory="YES"/>
      <ItemRef ItemOID="SUPPEX.QORIG"
        OrderNumber="9"
        Role="SUPPLEMENTAL QUALIFIER"
        Mandatory="YES"/>
      <ItemRef ItemOID="SUPPEX.QEVAL"
        OrderNumber="10"
        Role="SUPPLEMENTAL QUALIFIER"
        Mandatory="YES"/>
      <!-- **************************************************** -->
      <!-- def:leaf details for hypertext linking the dataset   -->
      <!-- **************************************************** -->
      <def:leaf ID="Location.SUPPEX" xlink:href="SUPPEX.csv">
        <def:title>SUPPEX.csv </def:title>
      </def:leaf>
    </ItemGroupDef>
    <!-- ******************************************* -->
    <!-- SUPPLB         ItemGroupDef INFORMATION *** -->
    <!-- ******************************************* -->
    <ItemGroupDef OID="SUPPLB"
      Name="SUPPLB"
      Repeating="Yes"
      IsReferenceData="No"
      Purpose="Tabulation"
      def:Label="LB - Supplemental Qualifiers"
      def:Structure="Supplemental Qualifier - One record per qualifier"
      def:DomainKeys="USUBJID, IDVAR, IDVARVAL"
      def:Class="Supplemental Qualifier"
      def:ArchiveLocationID="Location.SUPPLB">
      <ItemRef ItemOID="STUDYID"
        OrderNumber="1"
        Role="SUPPLEMENTAL QUALIFIER"
        Mandatory="YES"/>
      <ItemRef ItemOID="SUPPLB.RDOMAIN"
        OrderNumber="2"
        Role="SUPPLEMENTAL QUALIFIER"
        Mandatory="YES"/>
      <ItemRef ItemOID="USUBJID"
        OrderNumber="3"
        Role="SUPPLEMENTAL QUALIFIER"
        Mandatory="YES"/>
      <ItemRef ItemOID="SUPPLB.IDVAR"
        OrderNumber="4"
        Role="SUPPLEMENTAL QUALIFIER"
        Mandatory="YES"/>
      <ItemRef ItemOID="SUPPLB.IDVARVAL"
        OrderNumber="5"
        Role="SUPPLEMENTAL QUALIFIER"
        Mandatory="YES"/>
      <ItemRef ItemOID="SUPPLB.QNAM"
        OrderNumber="6"
        Role="SUPPLEMENTAL QUALIFIER"
        Mandatory="YES"/>
      <ItemRef ItemOID="SUPPLB.QLABEL"
        OrderNumber="7"
        Role="SUPPLEMENTAL QUALIFIER"
        Mandatory="YES"/>
      <ItemRef ItemOID="SUPPLB.QVAL"
        OrderNumber="8"
        Role="SUPPLEMENTAL QUALIFIER"
        Mandatory="YES"/>
      <ItemRef ItemOID="SUPPLB.QORIG"
        OrderNumber="9"
        Role="SUPPLEMENTAL QUALIFIER"
        Mandatory="YES"/>
      <ItemRef ItemOID="SUPPLB.QEVAL"
        OrderNumber="10"
        Role="SUPPLEMENTAL QUALIFIER"
        Mandatory="YES"/>
      <!-- **************************************************** -->
      <!-- def:leaf details for hypertext linking the dataset   -->
      <!-- **************************************************** -->
      <def:leaf ID="Location.SUPPLB" xlink:href="SUPPLB.csv">
        <def:title>SUPPLB.csv </def:title>
      </def:leaf>
    </ItemGroupDef>
    <!-- ******************************************* -->
    <!-- SV             ItemGroupDef INFORMATION *** -->
    <!-- ******************************************* -->
    <ItemGroupDef OID="SV"
      Name="SV"
      Repeating="Yes"
      IsReferenceData="No"
      Purpose="Tabulation "
      def:Label="Subject Visits"
      def:Structure="Trial Design - One record per visit per subject"
      def:DomainKeys="USUBJID, VISITNUM"
      def:Class="Trial Design"
      def:ArchiveLocationID="Location.SV">
      <ItemRef ItemOID="STUDYID"
        OrderNumber="1"
        Role="IDENTIFIER"
        Mandatory="YES"/>
      <ItemRef ItemOID="DOMAIN"
        OrderNumber="2"
        Role="IDENTIFIER"
        Mandatory="YES"/>
      <ItemRef ItemOID="USUBJID"
        OrderNumber="3"
        Role="IDENTIFIER"
        Mandatory="YES"/>
      <ItemRef ItemOID="SV.VISITNUM"
        OrderNumber="4"
        Role="TOPIC"
        Mandatory="YES"/>
      <ItemRef ItemOID="SV.VISIT"
        OrderNumber="5"
        Role="SYNONYM QUALIFIER"
        Mandatory="NO"/>
      <ItemRef ItemOID="SV.SVSTDTC"
        OrderNumber="7"
        Role="TIMING"
        Mandatory="YES"/>
      <ItemRef ItemOID="SV.SVENDTC"
        OrderNumber="8"
        Role="TIMING"
        Mandatory="YES"/>
      <!-- **************************************************** -->
      <!-- def:leaf details for hypertext linking the dataset   -->
      <!-- **************************************************** -->
      <def:leaf ID="Location.SV" xlink:href="SV.csv">
        <def:title>SV.csv </def:title>
      </def:leaf>
    </ItemGroupDef>
    <!-- ******************************************* -->
    <!-- TA             ItemGroupDef INFORMATION *** -->
    <!-- ******************************************* -->
    <ItemGroupDef OID="TA"
      Name="TA"
      Repeating="Yes"
      IsReferenceData="Yes"
      Purpose="Tabulation "
      def:Label="Trial Arms"
      def:Structure="Trial Design - One Record per Element for each Arm"
      def:DomainKeys="STUDYID, ARM "
      def:Class="Trial Design"
      def:ArchiveLocationID="Location.TA">
      <ItemRef ItemOID="STUDYID"
        OrderNumber="1"
        Role="IDENTIFIER"
        Mandatory="YES"/>
      <ItemRef ItemOID="DOMAIN"
        OrderNumber="2"
        Role="IDENTIFIER"
        Mandatory="YES"/>
      <ItemRef ItemOID="TA.ARMCD"
        OrderNumber="3"
        Role="TOPIC"
        Mandatory="YES"/>
      <ItemRef ItemOID="TA.ARM"
        OrderNumber="4"
        Role="SYNONYM QUALIFIER"
        Mandatory="YES"/>
      <ItemRef ItemOID="TA.TAETORD"
        OrderNumber="5"
        Role="IDENTIFIER"
        Mandatory="YES"/>
      <ItemRef ItemOID="TA.ETCD"
        OrderNumber="6"
        Role="RECORD QUALIFIER"
        Mandatory="YES"/>
      <ItemRef ItemOID="TA.ELEMENT"
        OrderNumber="7"
        Role="SYNONYM QUALIFIER"
        Mandatory="NO"/>
      <ItemRef ItemOID="TA.TABRANCH"
        OrderNumber="8"
        Role="RULE"
        Mandatory="YES"/>
      <ItemRef ItemOID="TA.TATRANS"
        OrderNumber="9"
        Role="RULE"
        Mandatory="YES"/>
      <ItemRef ItemOID="TA.EPOCH"
        OrderNumber="10"
        Role="TIMING"
        Mandatory="NO"/>
      <!-- **************************************************** -->
      <!-- def:leaf details for hypertext linking the dataset   -->
      <!-- **************************************************** -->
      <def:leaf ID="Location.TA" xlink:href="TA.csv">
        <def:title>TA.csv </def:title>
      </def:leaf>
    </ItemGroupDef>
    <!-- ******************************************* -->
    <!-- TE             ItemGroupDef INFORMATION *** -->
    <!-- ******************************************* -->
    <ItemGroupDef OID="TE"
      Name="TE"
      Repeating="Yes"
      IsReferenceData="Yes"
      Purpose="Tabulation "
      def:Label="Trial Elements"
      def:Structure="Trial Design - One Record Per Element"
      def:DomainKeys="STUDYID, ELEMENT "
      def:Class="Trial Design"
      def:ArchiveLocationID="Location.TE">
      <ItemRef ItemOID="STUDYID"
        OrderNumber="1"
        Role="IDENTIFIER"
        Mandatory="YES"/>
      <ItemRef ItemOID="DOMAIN"
        OrderNumber="2"
        Role="IDENTIFIER"
        Mandatory="YES"/>
      <ItemRef ItemOID="TE.ETCD"
        OrderNumber="3"
        Role="TOPIC"
        Mandatory="YES"/>
      <ItemRef ItemOID="TE.ELEMENT"
        OrderNumber="4"
        Role="SYNONYM QUALIFIER"
        Mandatory="YES"/>
      <ItemRef ItemOID="TE.TESTRL"
        OrderNumber="5"
        Role="RULE"
        Mandatory="YES"/>
      <ItemRef ItemOID="TE.TEENRL"
        OrderNumber="6"
        Role="RULE"
        Mandatory="NO"/>
      <ItemRef ItemOID="TE.TEDUR"
        OrderNumber="7"
        Role="TIMING"
        Mandatory="NO"/>
      <!-- **************************************************** -->
      <!-- def:leaf details for hypertext linking the dataset   -->
      <!-- **************************************************** -->
      <def:leaf ID="Location.TE" xlink:href="TE.csv">
        <def:title>TE.csv </def:title>
      </def:leaf>
    </ItemGroupDef>
    <!-- ******************************************* -->
    <!-- TI             ItemGroupDef INFORMATION *** -->
    <!-- ******************************************* -->
    <ItemGroupDef OID="TI"
      Name="TI"
      Repeating="Yes"
      IsReferenceData="Yes"
      Purpose="Tabulation "
      def:Label="Trial Inclusion/Exclusion Criteria"
      def:Structure="Trial Design - One Record Per Criteria"
      def:DomainKeys="STUDYID, IETESTCD"
      def:Class="Trial Design"
      def:ArchiveLocationID="Location.TI">
      <ItemRef ItemOID="STUDYID"
        OrderNumber="1"
        Role="IDENTIFIER"
        Mandatory="YES"/>
      <ItemRef ItemOID="DOMAIN"
        OrderNumber="2"
        Role="IDENTIFIER"
        Mandatory="YES"/>
      <ItemRef ItemOID="TI.IETESTCD"
        OrderNumber="3"
        Role="TOPIC"
        Mandatory="YES"/>
      <ItemRef ItemOID="TI.IETEST"
        OrderNumber="4"
        Role="SYNONYM QUALIFIER"
        Mandatory="YES"/>
      <ItemRef ItemOID="TI.IECAT"
        OrderNumber="5"
        Role="GROUPING QUALIFIER"
        Mandatory="YES"/>
      <ItemRef ItemOID="TI.TIRL"
        OrderNumber="6"
        Role="RULE"
        Mandatory="NO"/>
      <!-- **************************************************** -->
      <!-- def:leaf details for hypertext linking the dataset   -->
      <!-- **************************************************** -->
      <def:leaf ID="Location.TI" xlink:href="TI.csv">
        <def:title>TI.csv </def:title>
      </def:leaf>
    </ItemGroupDef>
    <!-- ******************************************* -->
    <!-- TS             ItemGroupDef INFORMATION *** -->
    <!-- ******************************************* -->
    <ItemGroupDef OID="TS"
      Name="TS"
      Repeating="Yes"
      IsReferenceData="Yes"
      Purpose="Tabulation "
      def:Label="Trial Summary"
      def:Structure="Trial Design - One Record Per Parameter"
      def:DomainKeys="STUDYID, TSPARMCD, TSSEQ"
      def:Class="Trial Design"
      def:ArchiveLocationID="Location.TS">
      <ItemRef ItemOID="STUDYID"
        OrderNumber="1"
        Role="IDENTIFIER"
        Mandatory="YES"/>
      <ItemRef ItemOID="DOMAIN"
        OrderNumber="2"
        Role="IDENTIFIER"
        Mandatory="YES"/>
      <ItemRef ItemOID="TS.TSSEQ"
        OrderNumber="3"
        Role="IDENTIFIER"
        Mandatory="YES"/>
      <ItemRef ItemOID="TS.TSPARMCD"
        OrderNumber="4"
        Role=" TOPIC"
        Mandatory="YES"/>
      <ItemRef ItemOID="TS.TSPARM"
        OrderNumber="5"
        Role="SYNONYM QUALIFIER"
        Mandatory="YES"/>
      <ItemRef ItemOID="TS.TSVAL"
        OrderNumber="6"
        Role="RESULT QUALIFIER"
        Mandatory="YES"/>
      <!-- **************************************************** -->
      <!-- def:leaf details for hypertext linking the dataset   -->
      <!-- **************************************************** -->
      <def:leaf ID="Location.TS" xlink:href="TS.csv">
        <def:title>TS.csv </def:title>
      </def:leaf>
    </ItemGroupDef>
    <!-- ******************************************* -->
    <!-- TV             ItemGroupDef INFORMATION *** -->
    <!-- ******************************************* -->
    <ItemGroupDef OID="TV"
      Name="TV"
      Repeating="Yes"
      IsReferenceData="Yes"
      Purpose="Tabulation "
      def:Label="Trial Visits"
      def:Structure="Trial Design - One Record per Visit per Arm"
      def:DomainKeys="STUDYID, VISIT "
      def:Class="Trial Design"
      def:ArchiveLocationID="Location.TV">
      <ItemRef ItemOID="STUDYID"
        OrderNumber="1"
        Role="IDENTIFIER"
        Mandatory="YES"/>
      <ItemRef ItemOID="DOMAIN"
        OrderNumber="2"
        Role="IDENTIFIER"
        Mandatory="YES"/>
      <ItemRef ItemOID="TV.VISITNUM"
        OrderNumber="3"
        Role="TOPIC"
        Mandatory="YES"/>
      <ItemRef ItemOID="TV.EPOCH"
        OrderNumber="3.3"
        Role="TIMING"
        Mandatory="NO"/>
      <ItemRef ItemOID="TV.VISIT"
        OrderNumber="4"
        Role="SYNONYM QUALIFIER"
        Mandatory="NO"/>
      <ItemRef ItemOID="TV.VISITDY"
        OrderNumber="5"
        Role="TIMING"
        Mandatory="NO"/>
      <ItemRef ItemOID="TV.ARMCD"
        OrderNumber="6"
        Role="RECORD QUALIFIER"
        Mandatory="YES"/>
      <ItemRef ItemOID="TV.ARM"
        OrderNumber="7"
        Role="SYNONYM QUALIFIER"
        Mandatory="NO"/>
      <ItemRef ItemOID="TV.TVSTRL"
        OrderNumber="8"
        Role="RULE"
        Mandatory="NO"/>
      <ItemRef ItemOID="TV.TVENRL"
        OrderNumber="9"
        Role="RULE"
        Mandatory="NO"/>
      <!-- **************************************************** -->
      <!-- def:leaf details for hypertext linking the dataset   -->
      <!-- **************************************************** -->
      <def:leaf ID="Location.TV" xlink:href="TV.csv">
        <def:title>TV.csv </def:title>
      </def:leaf>
    </ItemGroupDef>
    <!-- ******************************************* -->
    <!-- VS             ItemGroupDef INFORMATION *** -->
    <!-- ******************************************* -->
    <ItemGroupDef OID="VS"
      Name="VS"
      Repeating="Yes"
      IsReferenceData="No"
      Purpose="Tabulation "
      def:Label="Vital Signs"
      def:Structure="Findings - One record per subject per vital sign"
      def:DomainKeys="USUBJID, VSTESTCD "
      def:Class="Findings"
      def:ArchiveLocationID="Location.VS">
      <ItemRef ItemOID="STUDYID"
        OrderNumber="1"
        Role="IDENTIFIER"
        Mandatory="YES"/>
      <ItemRef ItemOID="DOMAIN"
        OrderNumber="2"
        Role="IDENTIFIER"
        Mandatory="YES"/>
      <ItemRef ItemOID="USUBJID"
        OrderNumber="3"
        Role="IDENTIFIER"
        Mandatory="YES"/>
      <ItemRef ItemOID="VS.EPOCH"
        OrderNumber="3.3"
        Role="TIMING"
        Mandatory="NO"/>
      <ItemRef ItemOID="VS.VSSEQ"
        OrderNumber="4"
        Role="IDENTIFIER"
        Mandatory="YES"/>
      <ItemRef ItemOID="VS.VSTESTCD"
        OrderNumber="7"
        Role="TOPIC"
        Mandatory="YES"/>
      <ItemRef ItemOID="VS.VSTEST"
        OrderNumber="8"
        Role="SYNONYM QUALIFIER"
        Mandatory="YES"/>
      <ItemRef ItemOID="VS.VSCAT"
        OrderNumber="9"
        Role="GROUPING QUALIFIER"
        Mandatory="NO"/>
      <ItemRef ItemOID="VS.VSPOS"
        OrderNumber="11"
        Role="RECORD QUALIFIER"
        Mandatory="NO"/>
      <ItemRef ItemOID="VS.VSORRES"
        OrderNumber="12"
        Role="RESULT QUALIFIER"
        Mandatory="YES"/>
      <ItemRef ItemOID="VS.VSORRESU"
        OrderNumber="13"
        Role="VARIABLE QUALIFIER"
        Mandatory="YES"/>
      <ItemRef ItemOID="VS.VSSTRESC"
        OrderNumber="14"
        Role="RESULT QUALIFIER"
        Mandatory="YES"/>
      <ItemRef ItemOID="VS.VSSTRESN"
        OrderNumber="15"
        Role="RESULT QUALIFIER"
        Mandatory="YES"/>
      <ItemRef ItemOID="VS.VSSTRESU"
        OrderNumber="16"
        Role="VARIABLE QUALIFIER"
        Mandatory="YES"/>
      <ItemRef ItemOID="VS.VSBLFL"
        OrderNumber="22"
        Role="RECORD QUALIFIER"
        Mandatory="YES"/>
      <ItemRef ItemOID="VS.VISIT"
        OrderNumber="24"
        Role="TIMING"
        Mandatory="NO"/>
      <ItemRef ItemOID="VS.VISITNUM"
        OrderNumber="25"
        Role="TIMING"
        Mandatory="YES"/>
      <ItemRef ItemOID="VS.VSDTC"
        OrderNumber="27"
        Role="TIMING"
        Mandatory="YES"/>
      <ItemRef ItemOID="VS.VSDY"
        OrderNumber="28"
        Role="TIMING"
        Mandatory="NO"/>
      <!-- **************************************************** -->
      <!-- def:leaf details for hypertext linking the dataset   -->
      <!-- **************************************************** -->
      <def:leaf ID="Location.VS" xlink:href="VS.csv">
        <def:title>VS.csv </def:title>
      </def:leaf>
    </ItemGroupDef>
    <!-- ************************************************************ -->
    <!-- The details of each variable is here for all domains         -->
    <!-- ************************************************************ -->
    <ItemDef OID="AE.AEACN"
      Name="AEACN"
      DataType="text"
      Length="200"
      Comment=" "
      Origin="CRF"
      def:Label="Action Taken with Study Treatment">
      <CodeListRef CodeListOID="CodeList.AEACN"/>
    </ItemDef>
    <ItemDef OID="AE.AEACNOTH"
      Name="AEACNOTH"
      DataType="text"
      Length="200"
      Comment=" "
      Origin="CRF"
      def:Label="Other Action Taken">
    </ItemDef>
    <ItemDef OID="AE.AEBODSYS"
      Name="AEBODSYS"
      DataType="text"
      Length="40"
      Comment=" "
      Origin="CRF"
      def:Label="Body System or Organ Class">
    </ItemDef>
    <ItemDef OID="AE.AECONTRT"
      Name="AECONTRT"
      DataType="text"
      Length="1"
      Comment=" "
      Origin="CRF"
      def:Label="Concomitant or Additional Trtmnt Given">
      <CodeListRef CodeListOID="CodeList._YNNUL"/>
    </ItemDef>
    <ItemDef OID="AE.AEDECOD"
      Name="AEDECOD"
      DataType="text"
      Length="40"
      Comment=" "
      Origin="Derived"
      def:Label="Dictionary-Derived Term">
    </ItemDef>
    <ItemDef OID="AE.AEDTC"
      Name="AEDTC"
      DataType="date"
      Length="10"
      Comment=" "
      Origin="CRF"
      def:Label="Date of Assessment">
    </ItemDef>
    <ItemDef OID="AE.AEDY"
      Name="AEDY"
      DataType="integer"
      Length="8"
      Comment="Study day is calculated as the number of days from the 'Date of first study day' collected on the study enrollment form."
      Origin="CRF"
      def:Label="Study Day of Assessment">
    </ItemDef>
    <ItemDef OID="AE.AEENDTC"
      Name="AEENDTC"
      DataType="date"
      Length="19"
      Comment=" "
      Origin="CRF"
      def:Label="End Date/Time of Adverse Event">
    </ItemDef>
    <ItemDef OID="AE.AEENDY"
      Name="AEENDY"
      DataType="integer"
      Length="8"
      Comment="Study day is calculated as the number of days from the 'Date of first study day' collected on the study enrollment form."
      Origin="Derived"
      def:Label="Study Day of End of Adverse Event">
    </ItemDef>
    <ItemDef OID="AE.AEENRF"
      Name="AEENRF"
      DataType="text"
      Length="12"
      Comment=" "
      Origin="Derived"
      def:Label="End Relative to Reference Period">
      <CodeListRef CodeListOID="CodeList._BDADA"/>
    </ItemDef>
    <ItemDef OID="AE.AEOUT"
      Name="AEOUT"
      DataType="text"
      Length="200"
      Comment=" "
      Origin="CRF"
      def:Label="Outcome of Adverse Event">
      <CodeListRef CodeListOID="CodeList.AEOUT"/>
    </ItemDef>
    <ItemDef OID="AE.AEREL"
      Name="AEREL"
      DataType="text"
      Length="200"
      Comment=" "
      Origin="CRF"
      def:Label="Causality">
      <CodeListRef CodeListOID="CodeList.AEREL"/>
    </ItemDef>
    <ItemDef OID="AE.AESCONG"
      Name="AESCONG"
      DataType="text"
      Length="1"
      Comment=" "
      Origin="CRF"
      def:Label="Congenital Anomaly or Birth Defect">
      <CodeListRef CodeListOID="CodeList._YNNUL"/>
    </ItemDef>
    <ItemDef OID="AE.AESDISAB"
      Name="AESDISAB"
      DataType="text"
      Length="1"
      Comment=" "
      Origin="CRF"
      def:Label="Persist or Signif Disability/Incapacity">
      <CodeListRef CodeListOID="CodeList._YNNUL"/>
    </ItemDef>
    <ItemDef OID="AE.AESDTH"
      Name="AESDTH"
      DataType="text"
      Length="1"
      Comment=" "
      Origin="CRF"
      def:Label="Results in Death">
      <CodeListRef CodeListOID="CodeList._YNNUL"/>
    </ItemDef>
    <ItemDef OID="AE.AESEQ"
      Name="AESEQ"
      DataType="integer"
      Length="8"
      Comment=" "
      Origin="CRF"
      def:Label="Sequence Number">
    </ItemDef>
    <ItemDef OID="AE.AESER"
      Name="AESER"
      DataType="text"
      Length="1"
      Comment=" "
      Origin="CRF"
      def:Label="Serious Event">
      <CodeListRef CodeListOID="CodeList._YN"/>
    </ItemDef>
    <ItemDef OID="AE.AESEV"
      Name="AESEV"
      DataType="text"
      Length="200"
      Comment=" "
      Origin="CRF"
      def:Label="Severity/Intensity">
      <CodeListRef CodeListOID="CodeList.AESEV"/>
    </ItemDef>
    <ItemDef OID="AE.AESHOSP"
      Name="AESHOSP"
      DataType="text"
      Length="1"
      Comment=" "
      Origin="CRF"
      def:Label="Requires or Prolongs Hospitalization">
      <CodeListRef CodeListOID="CodeList._YNNUL"/>
    </ItemDef>
    <ItemDef OID="AE.AESLIFE"
      Name="AESLIFE"
      DataType="text"
      Length="1"
      Comment=" "
      Origin="CRF"
      def:Label="Is Life Threatening">
      <CodeListRef CodeListOID="CodeList._YNNUL"/>
    </ItemDef>
    <ItemDef OID="AE.AESMIE"
      Name="AESMIE"
      DataType="text"
      Length="1"
      Comment=" "
      Origin="CRF"
      def:Label="Other Medically Important Serious Event">
      <CodeListRef CodeListOID="CodeList._YNNUL"/>
    </ItemDef>
    <ItemDef OID="AE.AESTDTC"
      Name="AESTDTC"
      DataType="date"
      Length="19"
      Comment=" "
      Origin="CRF"
      def:Label="Start Date/Time of Adverse Event">
    </ItemDef>
    <ItemDef OID="AE.AESTDY"
      Name="AESTDY"
      DataType="integer"
      Length="8"
      Comment="Study day is calculated as the number of days from the 'Date of first study day' collected on the study enrollment form."
      Origin="Derived"
      def:Label="Study Day of Start of Adverse Event">
    </ItemDef>
    <ItemDef OID="AE.AETERM"
      Name="AETERM"
      DataType="text"
      Length="200"
      Comment=" "
      Origin="CRF"
      def:Label="Reported Term for the Adverse Event">
    </ItemDef>
    <ItemDef OID="AE.EPOCH"
      Name="EPOCH"
      DataType="text"
      Length="200"
      Comment=" "
      Origin="CRF"
      def:Label="Epoch">
    </ItemDef>
    <ItemDef OID="AE.VISIT"
      Name="VISIT"
      DataType="text"
      Length="200"
      Comment=" "
      Origin="CRF"
      def:Label="Visit Name">
    </ItemDef>
    <ItemDef OID="AE.VISITNUM"
      Name="VISITNUM"
      DataType="integer"
      Length="8"
      Comment=" "
      Origin="CRF"
      def:Label="Visit Number">
    </ItemDef>
    <ItemDef OID="CM.CMCAT"
      Name="CMCAT"
      DataType="text"
      Length="200"
      Comment=" "
      Origin="Sponsor Defined"
      def:Label="Category for Medication">
      <CodeListRef CodeListOID="CodeList.CMCAT"/>
    </ItemDef>
    <ItemDef OID="CM.CMDOSTOT"
      Name="CMDOSTOT"
      DataType="integer"
      Length="8"
      Comment=" "
      Origin="CRF"
      def:Label="Total Daily Dose using CMDOSU">
    </ItemDef>
    <ItemDef OID="CM.CMDOSTXT"
      Name="CMDOSTXT"
      DataType="text"
      Length="200"
      Comment=" "
      Origin="CRF"
      def:Label="Dose Description">
    </ItemDef>
    <ItemDef OID="CM.CMDOSU"
      Name="CMDOSU"
      DataType="text"
      Length="200"
      Comment=" "
      Origin="CRF"
      def:Label="Dose Units">
      <CodeListRef CodeListOID="CodeList.CMDOSU"/>
    </ItemDef>
    <ItemDef OID="CM.CMDTC"
      Name="CMDTC"
      DataType="date"
      Length="10"
      Comment=" "
      Origin="CRF"
      def:Label="Date of Collection">
    </ItemDef>
    <ItemDef OID="CM.CMDY"
      Name="CMDY"
      DataType="integer"
      Length="8"
      Comment="Study day is calculated as the number of days from the 'Date of first study day' collected on the study enrollment form."
      Origin="CRF"
      def:Label="Study Day of Collection">
    </ItemDef>
    <ItemDef OID="CM.CMENDTC"
      Name="CMENDTC"
      DataType="date"
      Length="10"
      Comment=" "
      Origin="CRF"
      def:Label="End Date/Time of Medication">
    </ItemDef>
    <ItemDef OID="CM.CMENDY"
      Name="CMENDY"
      DataType="integer"
      Length="8"
      Comment="Study day is calculated as the number of days from the 'Date of first study day' collected on the study enrollment form."
      Origin="Derived"
      def:Label="Study Day of End of Medication">
    </ItemDef>
    <ItemDef OID="CM.CMINDC"
      Name="CMINDC"
      DataType="text"
      Length="200"
      Comment=" "
      Origin="CRF"
      def:Label="Indication">
    </ItemDef>
    <ItemDef OID="CM.CMOCCUR"
      Name="CMOCCUR"
      DataType="text"
      Length="1"
      Comment=" "
      Origin="CRF"
      def:Label="CM Occurrence">
      <CodeListRef CodeListOID="CodeList._YNNUL"/>
    </ItemDef>
    <ItemDef OID="CM.CMSCAT"
      Name="CMSCAT"
      DataType="text"
      Length="200"
      Comment=" "
      Origin="Sponsor Defined"
      def:Label="Subcategory for Medication">
      <CodeListRef CodeListOID="CodeList.CMSCAT"/>
    </ItemDef>
    <ItemDef OID="CM.CMSEQ"
      Name="CMSEQ"
      DataType="integer"
      Length="8"
      Comment=" "
      Origin="CRF"
      def:Label="Sequence Number">
    </ItemDef>
    <ItemDef OID="CM.CMSPID"
      Name="CMSPID"
      DataType="text"
      Length="12"
      Comment=" "
      Origin="Sponsor Defined"
      def:Label="Sponsor-Defined Identifier">
    </ItemDef>
    <ItemDef OID="CM.CMTRT"
      Name="CMTRT"
      DataType="text"
      Length="200"
      Comment=" "
      Origin="CRF"
      def:Label="Reported Name of Drug, Med, or Therapy">
    </ItemDef>
    <ItemDef OID="CM.EPOCH"
      Name="EPOCH"
      DataType="text"
      Length="200"
      Comment=" "
      Origin="CRF"
      def:Label="Epoch">
    </ItemDef>
    <ItemDef OID="CM.VISIT"
      Name="VISIT"
      DataType="text"
      Length="200"
      Comment=" "
      Origin="CRF"
      def:Label="Visit Name">
    </ItemDef>
    <ItemDef OID="CM.VISITNUM"
      Name="VISITNUM"
      DataType="integer"
      Length="8"
      Comment=" "
      Origin="CRF"
      def:Label="Visit Number">
    </ItemDef>
    <ItemDef OID="DM.AGE"
      Name="AGE"
      DataType="integer"
      Length="8"
      Comment=" "
      Origin="Derived"
      def:Label="Age in AGEU at RFSTDTC">
    </ItemDef>
    <ItemDef OID="DM.AGEU"
      Name="AGEU"
      DataType="text"
      Length="40"
      Comment=" "
      Origin="Derived"
      def:Label="Age Units">
      <CodeListRef CodeListOID="CodeList._AGEU"/>
    </ItemDef>
    <ItemDef OID="DM.ARM"
      Name="ARM"
      DataType="text"
      Length="40"
      Comment=" "
      Origin="CRF"
      def:Label="Description of Planned Arm">
      <CodeListRef CodeListOID="CodeList.ARM"/>
    </ItemDef>
    <ItemDef OID="DM.ARMCD"
      Name="ARMCD"
      DataType="text"
      Length="8"
      Comment=" "
      Origin="CRF"
      def:Label="Planned Arm Code">
      <CodeListRef CodeListOID="CodeList.ARMCD"/>
    </ItemDef>
    <ItemDef OID="DM.BRTHDTC"
      Name="BRTHDTC"
      DataType="date"
      Length="10"
      Comment=" "
      Origin="CRF"
      def:Label="Date/Time of Birth">
    </ItemDef>
    <ItemDef OID="DM.COUNTRY"
      Name="COUNTRY"
      DataType="text"
      Length="8"
      Comment=" "
      Origin="CRF"
      def:Label="Country">
    </ItemDef>
    <ItemDef OID="DM.DMDTC"
      Name="DMDTC"
      DataType="date"
      Length="10"
      Comment=" "
      Origin="CRF"
      def:Label="Date/Time of Collection">
    </ItemDef>
    <ItemDef OID="DM.DMDY"
      Name="DMDY"
      DataType="integer"
      Length="8"
      Comment="Study day is calculated as the number of days from the 'Date of first study day' collected on the study enrollment form."
      Origin="Derived"
      def:Label="Study Day of Collection">
    </ItemDef>
    <ItemDef OID="DM.EPOCH"
      Name="EPOCH"
      DataType="text"
      Length="200"
      Comment=" "
      Origin="CRF"
      def:Label="Epoch">
    </ItemDef>
    <ItemDef OID="DM.ETHNIC"
      Name="ETHNIC"
      DataType="text"
      Length="40"
      Comment=" "
      Origin="CRF"
      def:Label="Ethnicity">
      <CodeListRef CodeListOID="CodeList.ETHNIC"/>
    </ItemDef>
    <ItemDef OID="DM.RACE"
      Name="RACE"
      DataType="text"
      Length="40"
      Comment=" "
      Origin="CRF"
      def:Label="Race">
      <CodeListRef CodeListOID="CodeList.RACE"/>
    </ItemDef>
    <ItemDef OID="DM.RFENDTC"
      Name="RFENDTC"
      DataType="date"
      Length="10"
      Comment=" "
      Origin="Sponsor Defined"
      def:Label="Subject Reference End Date/Time">
    </ItemDef>
    <ItemDef OID="DM.RFSTDTC"
      Name="RFSTDTC"
      DataType="date"
      Length="10"
      Comment=" "
      Origin="Sponsor Defined"
      def:Label="Subject Reference Start Date/Time">
    </ItemDef>
    <ItemDef OID="DM.SEX"
      Name="SEX"
      DataType="text"
      Length="1"
      Comment=" "
      Origin="CRF"
      def:Label="Sex">
      <CodeListRef CodeListOID="CodeList._SEX"/>
    </ItemDef>
    <ItemDef OID="DM.SITEID"
      Name="SITEID"
      DataType="text"
      Length="6"
      Comment=" "
      Origin="CRF"
      def:Label="Study Site Identifier">
    </ItemDef>
    <ItemDef OID="DM.VISIT"
      Name="VISIT"
      DataType="text"
      Length="200"
      Comment=" "
      Origin="CRF"
      def:Label="Visit Name">
    </ItemDef>
    <ItemDef OID="DM.VISITNUM"
      Name="VISITNUM"
      DataType="integer"
      Length="8"
      Comment=" "
      Origin="CRF"
      def:Label="Visit Number">
    </ItemDef>
    <ItemDef OID="DOMAIN"
      Name="DOMAIN"
      DataType="text"
      Length="2"
      Comment=" "
      Origin="Derived"
      def:Label="Domain Abbreviation">
    </ItemDef>
    <ItemDef OID="DS.DSCAT"
      Name="DSCAT"
      DataType="text"
      Length="200"
      Comment=" "
      Origin="Sponsor Defined"
      def:Label="Category for Disposition Event">
      <CodeListRef CodeListOID="CodeList.DSCAT"/>
    </ItemDef>
    <ItemDef OID="DS.DSDECOD"
      Name="DSDECOD"
      DataType="text"
      Length="200"
      Comment=" "
      Origin="CRF"
      def:Label="Standardized Disposition Term">
      <CodeListRef CodeListOID="CodeList.DSDECOD"/>
    </ItemDef>
    <ItemDef OID="DS.DSDTC"
      Name="DSDTC"
      DataType="date"
      Length="10"
      Comment=" "
      Origin="CRF"
      def:Label="Date/Time of Collection">
    </ItemDef>
    <ItemDef OID="DS.DSDY"
      Name="DSDY"
      DataType="integer"
      Length="8"
      Comment="Study day is calculated as the number of days from the 'Date of first study day' collected on the study enrollment form."
      Origin="CRF"
      def:Label="Study Day of Collection">
    </ItemDef>
    <ItemDef OID="DS.DSSEQ"
      Name="DSSEQ"
      DataType="integer"
      Length="8"
      Comment=" "
      Origin="CRF"
      def:Label="Sequence Number">
    </ItemDef>
    <ItemDef OID="DS.DSSTDTC"
      Name="DSSTDTC"
      DataType="date"
      Length="10"
      Comment=" "
      Origin="CRF"
      def:Label="Start Date/Time of Disposition Event">
    </ItemDef>
    <ItemDef OID="DS.DSSTDY"
      Name="DSSTDY"
      DataType="integer"
      Length="8"
      Comment="Study day is calculated as the number of days from the 'Date of first study day' collected on the study enrollment form."
      Origin="Derived"
      def:Label="Study Day of Start of Disposition Event">
    </ItemDef>
    <ItemDef OID="DS.DSTERM"
      Name="DSTERM"
      DataType="text"
      Length="200"
      Comment=" "
      Origin="CRF"
      def:Label="Reported Term for the Disposition Event">
    </ItemDef>
    <ItemDef OID="DS.DSOCCUR"
      Name="DSOCCUR"
      DataType="text"
      Length="1"
      Comment=" "
      Origin="CRF"
      def:Label="Disposition Event Occurrence">
    </ItemDef>
    <ItemDef OID="DS.EPOCH"
      Name="EPOCH"
      DataType="text"
      Length="200"
      Comment=" "
      Origin="CRF"
      def:Label="Trial Epoch">
    </ItemDef>
    <ItemDef OID="DS.VISIT"
      Name="VISIT"
      DataType="text"
      Length="200"
      Comment=" "
      Origin="CRF"
      def:Label="Visit Name">
    </ItemDef>
    <ItemDef OID="DS.VISITNUM"
      Name="VISITNUM"
      DataType="integer"
      Length="8"
      Comment=" "
      Origin="CRF"
      def:Label="Visit Number">
    </ItemDef>
    <ItemDef OID="EX.EPOCH"
      Name="EPOCH"
      DataType="text"
      Length="200"
      Comment=" "
      Origin="CRF"
      def:Label="Epoch">
    </ItemDef>
    <ItemDef OID="EX.EXCAT"
      Name="EXCAT"
      DataType="text"
      Length="200"
      Comment=" "
      Origin="Sponsor Defined"
      def:Label="Category for Treatment">
      <CodeListRef CodeListOID="CodeList.EXCAT"/>
    </ItemDef>
    <ItemDef OID="EX.EXDOSE"
      Name="EXDOSE"
      DataType="integer"
      Length="8"
      Comment=" "
      Origin="CRF"
      def:Label="Dose per Administration">
    </ItemDef>
    <ItemDef OID="EX.EXDOSFRM"
      Name="EXDOSFRM"
      DataType="text"
      Length="40"
      Comment=" "
      Origin="CRF"
      def:Label="Dose Form">
      <CodeListRef CodeListOID="CodeList.EXDOSFRM"/>
    </ItemDef>
    <ItemDef OID="EX.EXDOSU"
      Name="EXDOSU"
      DataType="text"
      Length="40"
      Comment=" "
      Origin="CRF"
      def:Label="Dose Units">
      <CodeListRef CodeListOID="CodeList.EXDOSU"/>
    </ItemDef>
    <ItemDef OID="EX.EXDTC"
      Name="EXDTC"
      DataType="date"
      Length="19"
      Comment=" "
      Origin="CRF"
      def:Label="Date/Time of Collection">
    </ItemDef>
    <ItemDef OID="EX.EXDY"
      Name="EXDY"
      DataType="integer"
      Length="8"
      Comment="Study day is calculated as the number of days from the 'Date of first study day' collected on the study enrollment form."
      Origin="CRF"
      def:Label="Study Day of Collection">
    </ItemDef>
    <ItemDef OID="EX.EXENDTC"
      Name="EXENDTC"
      DataType="date"
      Length="40"
      Comment=" "
      Origin="CRF"
      def:Label="End Date/Time of Treatment">
    </ItemDef>
    <ItemDef OID="EX.EXENDY"
      Name="EXENDY"
      DataType="integer"
      Length="8"
      Comment="Study day is calculated as the number of days from the 'Date of first study day' collected on the study enrollment form."
      Origin="Derived"
      def:Label="Study Day of End of Treatment">
    </ItemDef>
    <ItemDef OID="EX.EXROUTE"
      Name="EXROUTE"
      DataType="text"
      Length="40"
      Comment=" "
      Origin="CRF"
      def:Label="Route of Administration">
      <CodeListRef CodeListOID="CodeList.EXROUTE"/>
    </ItemDef>
    <ItemDef OID="EX.EXSEQ"
      Name="EXSEQ"
      DataType="integer"
      Length="8"
      Comment=" "
      Origin="CRF"
      def:Label="Sequence Number">
    </ItemDef>
    <ItemDef OID="EX.EXSTDTC"
      Name="EXSTDTC"
      DataType="date"
      Length="40"
      Comment=" "
      Origin="CRF"
      def:Label="Start Date/Time of Treatment">
    </ItemDef>
    <ItemDef OID="EX.EXSTDY"
      Name="EXSTDY"
      DataType="integer"
      Length="8"
      Comment="Study day is calculated as the number of days from the 'Date of first study day' collected on the study enrollment form."
      Origin="Derived"
      def:Label="Study Day of Start of Treatment">
    </ItemDef>
    <ItemDef OID="EX.EXTRT"
      Name="EXTRT"
      DataType="text"
      Length="100"
      Comment=" "
      Origin="CRF"
      def:Label="Name of Actual Treatment">
    </ItemDef>
    <ItemDef OID="EX.VISIT"
      Name="VISIT"
      DataType="text"
      Length="200"
      Comment=" "
      Origin="CRF"
      def:Label="Visit Name">
    </ItemDef>
    <ItemDef OID="EX.VISITNUM"
      Name="VISITNUM"
      DataType="integer"
      Length="8"
      Comment=" "
      Origin="CRF"
      def:Label="Visit Number">
    </ItemDef>
    <ItemDef OID="IE.EPOCH"
      Name="EPOCH"
      DataType="text"
      Length="200"
      Comment=" "
      Origin="CRF"
      def:Label="Epoch">
    </ItemDef>
    <ItemDef OID="IE.IECAT"
      Name="IECAT"
      DataType="text"
      Length="200"
      Comment=" "
      Origin="Sponsor Defined"
      def:Label="Inclusion/Exclusion Category">
      <CodeListRef CodeListOID="CodeList._IECAT"/>
    </ItemDef>
    <ItemDef OID="IE.IEDTC"
      Name="IEDTC"
      DataType="date"
      Length="10"
      Comment=" "
      Origin="CRF"
      def:Label="Date/Time of Collection">
    </ItemDef>
    <ItemDef OID="IE.IEDY"
      Name="IEDY"
      DataType="integer"
      Length="8"
      Comment="Study day is calculated as the number of days from the 'Date of first study day' collected on the study enrollment form."
      Origin="Derived"
      def:Label="Study Day of Collection">
    </ItemDef>
    <ItemDef OID="IE.IEORRES"
      Name="IEORRES"
      DataType="text"
      Length="200"
      Comment=" "
      Origin="CRF"
      def:Label="I/E Criterion Original Result">
      <CodeListRef CodeListOID="CodeList._YN"/>
    </ItemDef>
    <ItemDef OID="IE.IESEQ"
      Name="IESEQ"
      DataType="integer"
      Length="8"
      Comment=" "
      Origin="CRF"
      def:Label="Sequence Number">
    </ItemDef>
    <ItemDef OID="IE.IESTRESC"
      Name="IESTRESC"
      DataType="text"
      Length="200"
      Comment=" "
      Origin="Derived"
      def:Label="I/E Criterion Result in Std Format">
      <CodeListRef CodeListOID="CodeList._YN"/>
    </ItemDef>
    <ItemDef OID="IE.IETEST"
      Name="IETEST"
      DataType="text"
      Length="40"
      Comment=" "
      Origin="CRF"
      def:Label="Inclusion/Exclusion Criterion">
      <CodeListRef CodeListOID="CodeList.IETEST"/>
    </ItemDef>
    <ItemDef OID="IE.IETESTCD"
      Name="IETESTCD"
      DataType="text"
      Length="8"
      Comment=" "
      Origin="CRF"
      def:Label="Inclusion/Exclusion Criterion Short Name">
      <CodeListRef CodeListOID="CodeList.IETESTCD"/>
    </ItemDef>
    <ItemDef OID="IE.VISIT"
      Name="VISIT"
      DataType="text"
      Length="200"
      Comment=" "
      Origin="CRF"
      def:Label="Visit Name">
    </ItemDef>
    <ItemDef OID="IE.VISITNUM"
      Name="VISITNUM"
      DataType="integer"
      Length="8"
      Comment=" "
      Origin="CRF"
      def:Label="Visit Number">
    </ItemDef>
    <ItemDef OID="LB.EPOCH"
      Name="EPOCH"
      DataType="text"
      Length="200"
      Comment=" "
      Origin="CRF"
      def:Label="Epoch">
    </ItemDef>
    <ItemDef OID="LB.LBBLFL"
      Name="LBBLFL"
      DataType="text"
      Length="1"
      Comment="Set to Y if lab data from intake urine log."
      Origin="CRF"
      def:Label="Baseline Flag">
      <CodeListRef CodeListOID="CodeList._YNUL"/>
    </ItemDef>
    <ItemDef OID="LB.LBCAT"
      Name="LBCAT"
      DataType="text"
      Length="200"
      Comment=" "
      Origin="Sponsor Defined"
      def:Label="Category for Lab Test">
      <CodeListRef CodeListOID="CodeList.LBCAT"/>
    </ItemDef>
    <ItemDef OID="LB.LBDTC"
      Name="LBDTC"
      DataType="date"
      Length="10"
      Comment=" "
      Origin="CRF"
      def:Label="Date/Time of Specimen Collection">
    </ItemDef>
    <ItemDef OID="LB.LBDY"
      Name="LBDY"
      DataType="integer"
      Length="8"
      Comment="Study day is calculated as the number of days from the 'Date of first study day' collected on the study enrollment form."
      Origin="Derived"
      def:Label="Study Day of Specimen Collection">
    </ItemDef>
    <ItemDef OID="LB.LBMETHOD"
      Name="LBMETHOD"
      DataType="text"
      Length="200"
      Comment=" "
      Origin="CRF"
      def:Label="Method of Test or Examination">
      <CodeListRef CodeListOID="CodeList.LBMETHOD"/>
    </ItemDef>
    <ItemDef OID="LB.LBNRIND"
      Name="LBNRIND"
      DataType="text"
      Length="200"
      Comment=" "
      Origin="CRF"
      def:Label="Reference Range Indicator">
      <CodeListRef CodeListOID="CodeList.LBNRIND"/>
    </ItemDef>
    <ItemDef OID="LB.LBORNRHI"
      Name="LBORNRHI"
      DataType="text"
      Length="200"
      Comment=" "
      Origin="CRF"
      def:Label="Reference Range Upper Limit in Orig Unit">
    </ItemDef>
    <ItemDef OID="LB.LBORNRLO"
      Name="LBORNRLO"
      DataType="text"
      Length="200"
      Comment=" "
      Origin="CRF"
      def:Label="Reference Range Lower Limit in Orig Unit">
    </ItemDef>
    <ItemDef OID="LB.LBORRES"
      Name="LBORRES"
      DataType="text"
      Length="200"
      Comment=" "
      Origin="CRF"
      def:Label="Result or Finding in Original Units">
    </ItemDef>
    <ItemDef OID="LB.LBORRESU"
      Name="LBORRESU"
      DataType="text"
      Length="200"
      Comment=" "
      Origin="CRF"
      def:Label="Original Units">
      <CodeListRef CodeListOID="CodeList.LBORRESU"/>
    </ItemDef>
    <ItemDef OID="LB.LBREASND"
      Name="LBREASND"
      DataType="text"
      Length="200"
      Comment=" "
      Origin="CRF"
      def:Label="Reason Test Not Done">
    </ItemDef>
    <ItemDef OID="LB.LBSEQ"
      Name="LBSEQ"
      DataType="integer"
      Length="8"
      Comment=" "
      Origin="CRF"
      def:Label="Sequence Number">
    </ItemDef>
    <ItemDef OID="LB.LBSPEC"
      Name="LBSPEC"
      DataType="text"
      Length="200"
      Comment=" "
      Origin="CRF"
      def:Label="Specimen Type">
      <CodeListRef CodeListOID="CodeList.LBSPEC"/>
    </ItemDef>
    <ItemDef OID="LB.LBSTAT"
      Name="LBSTAT"
      DataType="text"
      Length="8"
      Comment=" "
      Origin="CRF"
      def:Label="Lab Status">
      <CodeListRef CodeListOID="CodeList._ND"/>
    </ItemDef>
    <ItemDef OID="LB.LBSTNRHI"
      Name="LBSTNRHI"
      DataType="integer"
      Length="8"
      Comment=" "
      Origin="CRF"
      def:Label="Reference Range Upper Limit-Std Units">
    </ItemDef>
    <ItemDef OID="LB.LBSTNRLO"
      Name="LBSTNRLO"
      DataType="integer"
      Length="8"
      Comment=" "
      Origin="CRF"
      def:Label="Reference Range Lower Limit-Std Units">
    </ItemDef>
    <ItemDef OID="LB.LBSTRESC"
      Name="LBSTRESC"
      DataType="text"
      Length="200"
      Comment=" "
      Origin="Derived"
      def:Label="Character Result/Finding in Std Format">
    </ItemDef>
    <ItemDef OID="LB.LBSTRESN"
      Name="LBSTRESN"
      DataType="integer"
      Length="8"
      Comment=" "
      Origin="Derived"
      def:Label="Numeric Result/Finding in Standard Units">
    </ItemDef>
    <ItemDef OID="LB.LBSTRESU"
      Name="LBSTRESU"
      DataType="text"
      Length="200"
      Comment=" "
      Origin="CRF"
      def:Label="Standard Units">
      <CodeListRef CodeListOID="CodeList.LBSTRESU"/>
    </ItemDef>
    <ItemDef OID="LB.LBTEST"
      Name="LBTEST"
      DataType="text"
      Length="40"
      Comment=" "
      Origin="CRF"
      def:Label="LAB Test or Examination Name">
      <CodeListRef CodeListOID="CodeList.LBTEST"/>
    </ItemDef>
    <ItemDef OID="LB.LBTESTCD"
      Name="LBTESTCD"
      DataType="text"
      Length="8"
      Comment=" "
      Origin="CRF"
      def:Label="LAB Test or Examination Short Name">
      <CodeListRef CodeListOID="CodeList.LBTESTCD"/>
    </ItemDef>
    <ItemDef OID="LB.VISIT"
      Name="VISIT"
      DataType="text"
      Length="200"
      Comment=" "
      Origin="CRF"
      def:Label="Visit Name">
    </ItemDef>
    <ItemDef OID="LB.VISITNUM"
      Name="VISITNUM"
      DataType="integer"
      Length="8"
      Comment=" "
      Origin="CRF"
      def:Label="Visit Number">
    </ItemDef>
    <ItemDef OID="MH.EPOCH"
      Name="EPOCH"
      DataType="text"
      Length="200"
      Comment=" "
      Origin="CRF"
      def:Label="Epoch">
    </ItemDef>
    <ItemDef OID="MH.MHDTC"
      Name="MHDTC"
      DataType="date"
      Length="10"
      Comment=" "
      Origin="CRF"
      def:Label="Date/Time of History Collection">
    </ItemDef>
    <ItemDef OID="MH.MHDY"
      Name="MHDY"
      DataType="integer"
      Length="8"
      Comment="Study day is calculated as the number of days from the 'Date of first study day' collected on the study enrollment form."
      Origin="Derived"
      def:Label="Study Day of History Collection">
    </ItemDef>
    <ItemDef OID="MH.MHENRF"
      Name="MHENRF"
      DataType="text"
      Length="200"
      Comment=" "
      Origin="Derived"
      def:Label="End Relative to Reference Period">
      <CodeListRef CodeListOID="CodeList._BDADA"/>
    </ItemDef>
    <ItemDef OID="MH.MHOCCUR"
      Name="MHOCCUR"
      DataType="text"
      Length="1"
      Comment=" "
      Origin="CRF"
      def:Label="Medical History Occurrence">
      <CodeListRef CodeListOID="CodeList._YNNUL"/>
    </ItemDef>
    <ItemDef OID="MH.MHSEQ"
      Name="MHSEQ"
      DataType="integer"
      Length="8"
      Comment=" "
      Origin="CRF"
      def:Label="Sequence Number">
    </ItemDef>
    <ItemDef OID="MH.MHSPID"
      Name="MHSPID"
      DataType="text"
      Length="200"
      Comment=" "
      Origin="Sponsor Defined"
      def:Label="Sponsor-Defined Identifier">
    </ItemDef>
    <ItemDef OID="MH.MHSTAT"
      Name="MHSTAT"
      DataType="text"
      Length="200"
      Comment=" "
      Origin="CRF"
      def:Label="Medical History Status">
      <CodeListRef CodeListOID="CodeList._ND"/>
    </ItemDef>
    <ItemDef OID="MH.MHTERM"
      Name="MHTERM"
      DataType="text"
      Length="200"
      Comment=" "
      Origin="CRF"
      def:Label="Reported Term for the Medical History">
    </ItemDef>
    <ItemDef OID="MH.VISIT"
      Name="VISIT"
      DataType="text"
      Length="200"
      Comment=" "
      Origin="CRF"
      def:Label="Visit Name">
    </ItemDef>
    <ItemDef OID="MH.VISITNUM"
      Name="VISITNUM"
      DataType="integer"
      Length="8"
      Comment=" "
      Origin="CRF"
      def:Label="Visit Number">
    </ItemDef>
    <ItemDef OID="PE.EPOCH"
      Name="EPOCH"
      DataType="text"
      Length="200"
      Comment=" "
      Origin="CRF"
      def:Label="Epoch">
    </ItemDef>
    <ItemDef OID="PE.PEBLFL"
      Name="PEBLFL"
      DataType="text"
      Length="1"
      Comment=" "
      Origin="CRF"
      def:Label="Baseline Flag">
      <CodeListRef CodeListOID="CodeList._YNUL"/>
    </ItemDef>
    <ItemDef OID="PE.PEDTC"
      Name="PEDTC"
      DataType="date"
      Length="10"
      Comment=" "
      Origin="CRF"
      def:Label="Date/Time of Examination">
    </ItemDef>
    <ItemDef OID="PE.PEDY"
      Name="PEDY"
      DataType="integer"
      Length="8"
      Comment="Study day is calculated as the number of days from the 'Date of first study day' collected on the study enrollment form."
      Origin="Derived"
      def:Label="Study Day of Examination">
    </ItemDef>
    <ItemDef OID="PE.PEEVAL"
      Name="PEEVAL"
      DataType="text"
      Length="200"
      Comment=" "
      Origin="CRF"
      def:Label="Evaluator">
      <CodeListRef CodeListOID="CodeList.PEEVAL"/>
    </ItemDef>
    <ItemDef OID="PE.PEORRES"
      Name="PEORRES"
      DataType="text"
      Length="200"
      Comment=" "
      Origin="CRF"
      def:Label="Verbatim Examination Finding">
    </ItemDef>
    <ItemDef OID="PE.PEREASND"
      Name="PEREASND"
      DataType="text"
      Length="200"
      Comment=" "
      Origin="CRF"
      def:Label="Reason Not Examined">
    </ItemDef>
    <ItemDef OID="PE.PESEQ"
      Name="PESEQ"
      DataType="integer"
      Length="8"
      Comment=" "
      Origin="CRF"
      def:Label="Sequence Number">
    </ItemDef>
    <ItemDef OID="PE.PESTAT"
      Name="PESTAT"
      DataType="text"
      Length="200"
      Comment=" "
      Origin="CRF"
      def:Label="Examination Status">
      <CodeListRef CodeListOID="CodeList._ND"/>
    </ItemDef>
    <ItemDef OID="PE.PESTRESC"
      Name="PESTRESC"
      DataType="text"
      Length="200"
      Comment=" "
      Origin="Derived"
      def:Label="Character Result/Finding in Std. Format">
    </ItemDef>
    <ItemDef OID="PE.PESTRESN"
      Name="PESTRESN"
      DataType="integer"
      Length="8"
      Comment=" "
      Origin="Derived"
      def:Label="Numeric Result/Finding in Std. Units">
    </ItemDef>
    <ItemDef OID="PE.PESTRESU"
      Name="PESTRESU"
      DataType="text"
      Length="200"
      Comment=" "
      Origin="Derived"
      def:Label="Standard Units">
      <CodeListRef CodeListOID="CodeList.PESTRESU"/>
    </ItemDef>
    <ItemDef OID="PE.PETEST"
      Name="PETEST"
      DataType="text"
      Length="200"
      Comment=" "
      Origin="CRF"
      def:Label="Body System Examined">
      <CodeListRef CodeListOID="CodeList.PETEST"/>
    </ItemDef>
    <ItemDef OID="PE.PETESTCD"
      Name="PETESTCD"
      DataType="text"
      Length="8"
      Comment=" "
      Origin="CRF"
      def:Label="Body System Examined Short Name">
      <CodeListRef CodeListOID="CodeList.PETESTCD"/>
    </ItemDef>
    <ItemDef OID="PE.VISIT"
      Name="VISIT"
      DataType="text"
      Length="200"
      Comment=" "
      Origin="CRF"
      def:Label="Visit Name">
    </ItemDef>
    <ItemDef OID="PE.VISITNUM"
      Name="VISITNUM"
      DataType="integer"
      Length="8"
      Comment=" "
      Origin="CRF"
      def:Label="Visit Number">
    </ItemDef>
    <ItemDef OID="QS.EPOCH"
      Name="EPOCH"
      DataType="text"
      Length="200"
      Comment=" "
      Origin="CRF"
      def:Label="Epoch">
    </ItemDef>
    <ItemDef OID="QS.QSBLFL"
      Name="QSBLFL"
      DataType="text"
      Length="1"
      Comment=" "
      Origin="CRF"
      def:Label="Baseline Flag">
      <CodeListRef CodeListOID="CodeList._YNUL"/>
    </ItemDef>
    <ItemDef OID="QS.QSCAT"
      Name="QSCAT"
      DataType="text"
      Length="200"
      Comment=" "
      Origin="Sponsor Defined"
      def:Label="Category of Question">
      <CodeListRef CodeListOID="CodeList.QSCAT"/>
    </ItemDef>
    <ItemDef OID="QS.QSDTC"
      Name="QSDTC"
      DataType="date"
      Length="10"
      Comment=" "
      Origin="CRF"
      def:Label="Date/Time of Finding">
    </ItemDef>
    <ItemDef OID="QS.QSDY"
      Name="QSDY"
      DataType="integer"
      Length="8"
      Comment="Study day is calculated as the number of days from the 'Date of first study day' collected on the study enrollment form."
      Origin="Derived"
      def:Label="Study Day of Finding">
    </ItemDef>
    <ItemDef OID="QS.QSEVAL"
      Name="QSEVAL"
      DataType="text"
      Length="3"
      Comment=" "
      Origin="CRF"
      def:Label="Evaluator">
    </ItemDef>
    <ItemDef OID="QS.QSEVLINT"
      Name="QSEVLINT"
      DataType="text"
      Length="40"
      Comment=" "
      Origin="CRF"
      def:Label="Evaluation Interval">
    </ItemDef>
    <ItemDef OID="QS.QSORRES"
      Name="QSORRES"
      DataType="text"
      Length="200"
      Comment=" "
      Origin="CRF"
      def:Label="Finding in Original Units">
    </ItemDef>
    <ItemDef OID="QS.QSSCAT"
      Name="QSSCAT"
      DataType="text"
      Length="200"
      Comment=" "
      Origin="Sponsor Defined"
      def:Label="Subcategory for Question">
      <CodeListRef CodeListOID="CodeList.QSSCAT"/>
    </ItemDef>
    <ItemDef OID="QS.QSSEQ"
      Name="QSSEQ"
      DataType="integer"
      Length="8"
      Comment=" "
      Origin="CRF"
      def:Label="Sequence Number">
    </ItemDef>
    <ItemDef OID="QS.QSSTRESC"
      Name="QSSTRESC"
      DataType="text"
      Length="200"
      Comment=" "
      Origin="CRF"
      def:Label="Character Result/Finding in Std Format">
    </ItemDef>
    <ItemDef OID="QS.QSSTRESN"
      Name="QSSTRESN"
      DataType="integer"
      Length="8"
      Comment=" "
      Origin="Derived"
      def:Label="Numeric Finding in Standard Units">
    </ItemDef>
    <ItemDef OID="QS.QSTEST"
      Name="QSTEST"
      DataType="text"
      Length="40"
      Comment=" "
      Origin="CRF"
      def:Label="Question Name">
      <CodeListRef CodeListOID="CodeList.QSTEST"/>
    </ItemDef>
    <ItemDef OID="QS.QSTESTCD"
      Name="QSTESTCD"
      DataType="text"
      Length="8"
      Comment=" "
      Origin="CRF"
      def:Label="Question Short Name">
      <CodeListRef CodeListOID="CodeList.QSTESTCD"/>
    </ItemDef>
    <ItemDef OID="QS.VISIT"
      Name="VISIT"
      DataType="text"
      Length="200"
      Comment=" "
      Origin="CRF"
      def:Label="Visit Name">
    </ItemDef>
    <ItemDef OID="QS.VISITNUM"
      Name="VISITNUM"
      DataType="integer"
      Length="8"
      Comment=" "
      Origin="CRF"
      def:Label="Visit Number">
    </ItemDef>
    <ItemDef OID="RP.EPOCH"
      Name="EPOCH"
      DataType="text"
      Length="200"
      Comment=" "
      Origin="CRF"
      def:Label="Epoch">
    </ItemDef>
    <ItemDef OID="RP.RPDTC"
      Name="RPDTC"
      DataType="date"
      Length="10"
      Comment=" "
      Origin="CRF"
      def:Label="Date/Time of Collection">
    </ItemDef>
    <ItemDef OID="RP.RPDY"
      Name="RPDY"
      DataType="integer"
      Length="8"
      Comment="Study day is calculated as the number of days from the 'Date of first study day' collected on the study enrollment form."
      Origin="CRF"
      def:Label="Study Day of Examination">
    </ItemDef>
    <ItemDef OID="RP.RPORRES"
      Name="RPORRES"
      DataType="text"
      Length="200"
      Comment=" "
      Origin="CRF"
      def:Label="Result or Finding in Original Units">
    </ItemDef>
    <ItemDef OID="RP.RPSEQ"
      Name="RPSEQ"
      DataType="integer"
      Length="8"
      Comment=" "
      Origin="CRF"
      def:Label="Sequence Number">
    </ItemDef>
    <ItemDef OID="RP.RPTEST"
      Name="RPTEST"
      DataType="text"
      Length="200"
      Comment=" "
      Origin="CRF"
      def:Label="Subject Characteristic">
      <CodeListRef CodeListOID="CodeList.RPTEST"/>
    </ItemDef>
    <ItemDef OID="RP.RPTESTCD"
      Name="RPTESTCD"
      DataType="text"
      Length="8"
      Comment=" "
      Origin="CRF"
      def:Label="Subject Characteristic Short Name">
    </ItemDef>
    <ItemDef OID="RP.VISIT"
      Name="VISIT"
      DataType="text"
      Length="200"
      Comment=" "
      Origin="CRF"
      def:Label="Visit Name">
    </ItemDef>
    <ItemDef OID="RP.VISITNUM"
      Name="VISITNUM"
      DataType="integer"
      Length="8"
      Comment=" "
      Origin="CRF"
      def:Label="Visit Number">
    </ItemDef>
    <ItemDef OID="SC.SCDTC"
      Name="SCDTC"
      DataType="date"
      Length="10"
      Comment=" "
      Origin="CRF"
      def:Label="Date/Time of Collection">
    </ItemDef>
    <ItemDef OID="SC.SCDY"
      Name="SCDY"
      DataType="integer"
      Length="8"
      Comment="Study day is calculated as the number of days from the 'Date of first study day' collected on the study enrollment form."
      Origin="Derived"
      def:Label="Study Day of Examination">
    </ItemDef>
    <ItemDef OID="SC.SCORRES"
      Name="SCORRES"
      DataType="text"
      Length="200"
      Comment=" "
      Origin="CRF"
      def:Label="Result or Finding in Original Units">
    </ItemDef>
    <ItemDef OID="SC.SCSEQ"
      Name="SCSEQ"
      DataType="integer"
      Length="8"
      Comment=" "
      Origin="CRF"
      def:Label="Sequence Number">
    </ItemDef>
    <ItemDef OID="SC.SCSTRESC"
      Name="SCSTRESC"
      DataType="text"
      Length="200"
      Comment=" "
      Origin="Derived"
      def:Label="Character Result/Finding in Std Format">
    </ItemDef>
    <ItemDef OID="SC.SCSTRESN"
      Name="SCSTRESN"
      DataType="integer"
      Length="8"
      Comment=" "
      Origin="Derived"
      def:Label="Numeric Result/Finding in Standard Units">
    </ItemDef>
    <ItemDef OID="SC.SCTEST"
      Name="SCTEST"
      DataType="text"
      Length="200"
      Comment=" "
      Origin="CRF"
      def:Label="Subject Characteristic">
      <CodeListRef CodeListOID="CodeList.SCTEST"/>
    </ItemDef>
    <ItemDef OID="SC.SCTESTCD"
      Name="SCTESTCD"
      DataType="text"
      Length="8"
      Comment=" "
      Origin="CRF"
      def:Label="Subject Characteristic Short Name">
      <CodeListRef CodeListOID="CodeList.SCTESTCD"/>
    </ItemDef>
    <ItemDef OID="SE.ELEMENT"
      Name="ELEMENT"
      DataType="text"
      Length="32"
      Comment=" "
      Origin="Sponsor Defined"
      def:Label="Description of Subject Element">
      <CodeListRef CodeListOID="CodeList.ELEMENT"/>
    </ItemDef>
    <ItemDef OID="SE.ETCD"
      Name="ETCD"
      DataType="text"
      Length="6"
      Comment=" "
      Origin="Sponsor Defined"
      def:Label="Subject Element Code">
      <CodeListRef CodeListOID="CodeList.ETCD"/>
    </ItemDef>
    <ItemDef OID="SE.SEENDTC"
      Name="SEENDTC"
      DataType="date"
      Length="10"
      Comment=" "
      Origin="CRF"
      def:Label="End Date/Time of Element">
    </ItemDef>
    <ItemDef OID="SE.SESEQ"
      Name="SESEQ"
      DataType="integer"
      Length="8"
      Comment=" "
      Origin="Derived"
      def:Label="Sequence Number">
    </ItemDef>
    <ItemDef OID="SE.SESTDTC"
      Name="SESTDTC"
      DataType="date"
      Length="10"
      Comment=" "
      Origin="CRF"
      def:Label="Start Date/Time of Element">
    </ItemDef>
    <ItemDef OID="STUDYID"
      Name="STUDYID"
      DataType="text"
      Length="13"
      Comment=" "
      Origin="CRF"
      def:Label="Study Identifier">
    </ItemDef>
    <ItemDef OID="SU.SUCAT"
      Name="SUCAT"
      DataType="text"
      Length="40"
      Comment=" "
      Origin="Sponsor Defined"
      def:Label="Category">
      <CodeListRef CodeListOID="CodeList.SUCAT"/>
    </ItemDef>
    <ItemDef OID="SU.SUDTC"
      Name="SUDTC"
      DataType="date"
      Length="10"
      Comment=" "
      Origin="CRF"
      def:Label="Date/Time of Collection">
    </ItemDef>
    <ItemDef OID="SU.SUDUR"
      Name="SUDUR"
      DataType="text"
      Length="5"
      Comment=" "
      Origin="CRF"
      def:Label="Duration of Substance Use">
    </ItemDef>
    <ItemDef OID="SU.SUDY"
      Name="SUDY"
      DataType="integer"
      Length="8"
      Comment="Study day is calculated as the number of days from the 'Date of first study day' collected on the study enrollment form."
      Origin="CRF"
      def:Label="Study Day of Collection">
    </ItemDef>
    <ItemDef OID="SU.SUEVLINT"
      Name="SUEVLINT"
      DataType="text"
      Length="5"
      Comment=" "
      Origin="CRF"
      def:Label="Evaluation Interval">
    </ItemDef>
    <ItemDef OID="SU.SUROUTE"
      Name="SUROUTE"
      DataType="text"
      Length="40"
      Comment=" "
      Origin="CRF"
      def:Label="Route of Administration">
      <CodeListRef CodeListOID="CodeList.SUROUTE"/>
    </ItemDef>
    <ItemDef OID="SU.SUSEQ"
      Name="SUSEQ"
      DataType="integer"
      Length="8"
      Comment=" "
      Origin="CRF"
      def:Label="Sequence Number">
    </ItemDef>
    <ItemDef OID="SU.SUTRT"
      Name="SUTRT"
      DataType="text"
      Length="65"
      Comment=" "
      Origin="CRF"
      def:Label="Reported Name of Substance">
    </ItemDef>
    <ItemDef OID="SU.VISIT"
      Name="VISIT"
      DataType="text"
      Length="200"
      Comment=" "
      Origin="CRF"
      def:Label="Visit Name">
    </ItemDef>
    <ItemDef OID="SU.VISITNUM"
      Name="VISITNUM"
      DataType="integer"
      Length="8"
      Comment=" "
      Origin="CRF"
      def:Label="Visit Number">
    </ItemDef>
    <ItemDef OID="SUBJID"
      Name="SUBJID"
      DataType="text"
      Length="4"
      Comment=" "
      Origin="CRF"
      def:Label="Subject Identifier for the Study">
    </ItemDef>
    <ItemDef OID="SUPPAE.IDVAR"
      Name="IDVAR"
      DataType="text"
      Length="5"
      Comment=" "
      Origin="Derived"
      def:Label="Identifying Variable">
    </ItemDef>
    <ItemDef OID="SUPPAE.IDVARVAL"
      Name="IDVARVAL"
      DataType="integer"
      Length="8"
      Comment=" "
      Origin="Derived"
      def:Label="Identifying Variable Value">
    </ItemDef>
    <ItemDef OID="SUPPAE.QLABEL"
      Name="QLABEL"
      DataType="text"
      Length="40"
      Comment=" "
      Origin="CRF"
      def:Label="Qualifier Variable Label">
    </ItemDef>
    <ItemDef OID="SUPPAE.QNAM"
      Name="QNAM"
      DataType="text"
      Length="8"
      Comment=" "
      Origin="CRF"
      def:Label="Qualifier Variable Name">
    </ItemDef>
    <ItemDef OID="SUPPAE.QORIG"
      Name="QORIG"
      DataType="text"
      Length="3"
      Comment=" "
      Origin="CRF"
      def:Label="Origin">
    </ItemDef>
    <ItemDef OID="SUPPAE.QVAL"
      Name="QVAL"
      DataType="text"
      Length="200"
      Comment=" "
      Origin="CRF"
      def:Label="Data Value">
    </ItemDef>
    <ItemDef OID="SUPPAE.RDOMAIN"
      Name="RDOMAIN"
      DataType="text"
      Length="2"
      Comment=" "
      Origin="Derived"
      def:Label="Related Domain Abbreviation">
    </ItemDef>
    <ItemDef OID="SUPPCM.IDVAR"
      Name="IDVAR"
      DataType="text"
      Length="7"
      Comment=" "
      Origin="Derived"
      def:Label="Identifying Variable">
    </ItemDef>
    <ItemDef OID="SUPPCM.IDVARVAL"
      Name="IDVARVAL"
      DataType="text"
      Length="200"
      Comment=" "
      Origin="Derived"
      def:Label="Identifying Variable Value">
    </ItemDef>
    <ItemDef OID="SUPPCM.QEVAL"
      Name="QEVAL"
      DataType="text"
      Length="1"
      Comment=" "
      Origin="CRF"
      def:Label="Evaluator">
    </ItemDef>
    <ItemDef OID="SUPPCM.QLABEL"
      Name="QLABEL"
      DataType="text"
      Length="40"
      Comment=" "
      Origin="CRF"
      def:Label="Qualifier Variable Label">
    </ItemDef>
    <ItemDef OID="SUPPCM.QNAM"
      Name="QNAM"
      DataType="text"
      Length="8"
      Comment=" "
      Origin="CRF"
      def:Label="Qualifier Variable Name">
    </ItemDef>
    <ItemDef OID="SUPPCM.QORIG"
      Name="QORIG"
      DataType="text"
      Length="3"
      Comment=" "
      Origin="CRF"
      def:Label="Origin">
    </ItemDef>
    <ItemDef OID="SUPPCM.QVAL"
      Name="QVAL"
      DataType="text"
      Length="200"
      Comment=" "
      Origin="CRF"
      def:Label="Data Value">
    </ItemDef>
    <ItemDef OID="SUPPCM.RDOMAIN"
      Name="RDOMAIN"
      DataType="text"
      Length="2"
      Comment=" "
      Origin="Derived"
      def:Label="Related Domain Abbreviation">
    </ItemDef>
    <ItemDef OID="SUPPDS.IDVAR"
      Name="IDVAR"
      DataType="text"
      Length="5"
      Comment=" "
      Origin="Derived"
      def:Label="Identifying Variable">
    </ItemDef>
    <ItemDef OID="SUPPDS.IDVARVAL"
      Name="IDVARVAL"
      DataType="text"
      Length="200"
      Comment=" "
      Origin="Derived"
      def:Label="Identifying Variable Value">
    </ItemDef>
    <ItemDef OID="SUPPDS.QEVAL"
      Name="QEVAL"
      DataType="text"
      Length="1"
      Comment=" "
      Origin="CRF"
      def:Label="Evaluator">
    </ItemDef>
    <ItemDef OID="SUPPDS.QLABEL"
      Name="QLABEL"
      DataType="text"
      Length="40"
      Comment=" "
      Origin="CRF"
      def:Label="Qualifier Variable Label">
    </ItemDef>
    <ItemDef OID="SUPPDS.QNAM"
      Name="QNAM"
      DataType="text"
      Length="8"
      Comment=" "
      Origin="CRF"
      def:Label="Qualifier Variable Name">
    </ItemDef>
    <ItemDef OID="SUPPDS.QORIG"
      Name="QORIG"
      DataType="text"
      Length="3"
      Comment=" "
      Origin="CRF"
      def:Label="Origin">
    </ItemDef>
    <ItemDef OID="SUPPDS.QVAL"
      Name="QVAL"
      DataType="text"
      Length="200"
      Comment=" "
      Origin="CRF"
      def:Label="Data Value">
    </ItemDef>
    <ItemDef OID="SUPPDS.RDOMAIN"
      Name="RDOMAIN"
      DataType="text"
      Length="2"
      Comment=" "
      Origin="Derived"
      def:Label="Related Domain Abbreviation">
    </ItemDef>
    <ItemDef OID="SUPPEX.IDVAR"
      Name="IDVAR"
      DataType="text"
      Length="5"
      Comment=" "
      Origin="Derived"
      def:Label="Identifying Variable">
    </ItemDef>
    <ItemDef OID="SUPPEX.IDVARVAL"
      Name="IDVARVAL"
      DataType="text"
      Length="200"
      Comment=" "
      Origin="Derived"
      def:Label="Identifying Variable Value">
    </ItemDef>
    <ItemDef OID="SUPPEX.QEVAL"
      Name="QEVAL"
      DataType="text"
      Length="200"
      Comment=" "
      Origin="CRF"
      def:Label="Evaluator">
    </ItemDef>
    <ItemDef OID="SUPPEX.QLABEL"
      Name="QLABEL"
      DataType="text"
      Length="40"
      Comment=" "
      Origin="CRF"
      def:Label="Qualifier Variable Label">
    </ItemDef>
    <ItemDef OID="SUPPEX.QNAM"
      Name="QNAM"
      DataType="text"
      Length="8"
      Comment=" "
      Origin="CRF"
      def:Label="Qualifier Variable Name">
    </ItemDef>
    <ItemDef OID="SUPPEX.QORIG"
      Name="QORIG"
      DataType="text"
      Length="40"
      Comment=" "
      Origin="CRF"
      def:Label="Origin">
    </ItemDef>
    <ItemDef OID="SUPPEX.QVAL"
      Name="QVAL"
      DataType="text"
      Length="200"
      Comment=" "
      Origin="CRF"
      def:Label="Data Value">
    </ItemDef>
    <ItemDef OID="SUPPEX.RDOMAIN"
      Name="RDOMAIN"
      DataType="text"
      Length="2"
      Comment=" "
      Origin="Derived"
      def:Label="Related Domain Abbreviation">
    </ItemDef>
    <ItemDef OID="SUPPLB.IDVAR"
      Name="IDVAR"
      DataType="text"
      Length="5"
      Comment=" "
      Origin="Derived"
      def:Label="Identifying Variable">
    </ItemDef>
    <ItemDef OID="SUPPLB.IDVARVAL"
      Name="IDVARVAL"
      DataType="text"
      Length="200"
      Comment=" "
      Origin="Derived"
      def:Label="Identifying Variable Value">
    </ItemDef>
    <ItemDef OID="SUPPLB.QEVAL"
      Name="QEVAL"
      DataType="text"
      Length="1"
      Comment=" "
      Origin="CRF"
      def:Label="Evaluator">
    </ItemDef>
    <ItemDef OID="SUPPLB.QLABEL"
      Name="QLABEL"
      DataType="text"
      Length="40"
      Comment=" "
      Origin="CRF"
      def:Label="Qualifier Variable Label">
    </ItemDef>
    <ItemDef OID="SUPPLB.QNAM"
      Name="QNAM"
      DataType="text"
      Length="8"
      Comment=" "
      Origin="CRF"
      def:Label="Qualifier Variable Name">
    </ItemDef>
    <ItemDef OID="SUPPLB.QORIG"
      Name="QORIG"
      DataType="text"
      Length="3"
      Comment=" "
      Origin="CRF"
      def:Label="Origin">
    </ItemDef>
    <ItemDef OID="SUPPLB.QVAL"
      Name="QVAL"
      DataType="text"
      Length="200"
      Comment=" "
      Origin="CRF"
      def:Label="Data Value">
    </ItemDef>
    <ItemDef OID="SUPPLB.RDOMAIN"
      Name="RDOMAIN"
      DataType="text"
      Length="2"
      Comment=" "
      Origin="Derived"
      def:Label="Related Domain Abbreviation">
    </ItemDef>
    <ItemDef OID="SV.SVENDTC"
      Name="SVENDTC"
      DataType="date"
      Length="10"
      Comment=" "
      Origin="CRF"
      def:Label="End Date/Time of Visit">
    </ItemDef>
    <ItemDef OID="SV.SVSTDTC"
      Name="SVSTDTC"
      DataType="date"
      Length="10"
      Comment=" "
      Origin="CRF"
      def:Label="Start Date/Time of Visit">
    </ItemDef>
    <ItemDef OID="SV.VISIT"
      Name="VISIT"
      DataType="text"
      Length="200"
      Comment=" "
      Origin="CRF"
      def:Label="Visit Name">
    </ItemDef>
    <ItemDef OID="SV.VISITNUM"
      Name="VISITNUM"
      DataType="integer"
      Length="8"
      Comment=" "
      Origin="CRF"
      def:Label="Visit Number">
    </ItemDef>
    <ItemDef OID="TA.ARM"
      Name="ARM"
      DataType="text"
      Length="22"
      Comment=" "
      Origin="CRF"
      def:Label="Description of Arm">
      <CodeListRef CodeListOID="CodeList.ARM"/>
    </ItemDef>
    <ItemDef OID="TA.ARMCD"
      Name="ARMCD"
      DataType="text"
      Length="5"
      Comment=" "
      Origin="CRF"
      def:Label="Arm Code">
      <CodeListRef CodeListOID="CodeList.ARMCD"/>
    </ItemDef>
    <ItemDef OID="TA.ELEMENT"
      Name="ELEMENT"
      DataType="text"
      Length="22"
      Comment=" "
      Origin="Sponsor Defined"
      def:Label="Description of Element">
      <CodeListRef CodeListOID="CodeList.ELEMENT"/>
    </ItemDef>
    <ItemDef OID="TA.EPOCH"
      Name="EPOCH"
      DataType="text"
      Length="200"
      Comment=" "
      Origin="CRF"
      def:Label="Trial Epoch">
    </ItemDef>
    <ItemDef OID="TA.ETCD"
      Name="ETCD"
      DataType="text"
      Length="6"
      Comment=" "
      Origin="Sponsor Defined"
      def:Label="Element Code">
      <CodeListRef CodeListOID="CodeList.ETCD"/>
    </ItemDef>
    <ItemDef OID="TA.TABRANCH"
      Name="TABRANCH"
      DataType="text"
      Length="19"
      Comment=" "
      Origin="CRF"
      def:Label="Branch">
    </ItemDef>
    <ItemDef OID="TA.TAETORD"
      Name="TAETORD"
      DataType="integer"
      Length="8"
      Comment=" "
      Origin="Sponsor Defined"
      def:Label="Order of Element within Arm">
    </ItemDef>
    <ItemDef OID="TA.TATRANS"
      Name="TATRANS"
      DataType="text"
      Length="1"
      Comment=" "
      Origin="CRF"
      def:Label="Transition Rule">
    </ItemDef>
    <ItemDef OID="TE.ELEMENT"
      Name="ELEMENT"
      DataType="text"
      Length="32"
      Comment=" "
      Origin="Sponsor Defined"
      def:Label="Description of Element">
      <CodeListRef CodeListOID="CodeList.ELEMENT"/>
    </ItemDef>
    <ItemDef OID="TE.ETCD"
      Name="ETCD"
      DataType="text"
      Length="6"
      Comment=" "
      Origin="Sponsor Defined"
      def:Label="Element Code">
      <CodeListRef CodeListOID="CodeList.ETCD"/>
    </ItemDef>
    <ItemDef OID="TE.TEDUR"
      Name="TEDUR"
      DataType="text"
      Length="4"
      Comment=" "
      Origin="Sponsor Defined"
      def:Label="Planned Duration of Element">
    </ItemDef>
    <ItemDef OID="TE.TEENRL"
      Name="TEENRL"
      DataType="text"
      Length="81"
      Comment=" "
      Origin="Sponsor Defined"
      def:Label="Rule for End of Element">
    </ItemDef>
    <ItemDef OID="TE.TESTRL"
      Name="TESTRL"
      DataType="text"
      Length="38"
      Comment=" "
      Origin="Sponsor Defined"
      def:Label="Rule for Start of Element">
    </ItemDef>
    <ItemDef OID="TI.IECAT"
      Name="IECAT"
      DataType="text"
      Length="9"
      Comment=" "
      Origin="Sponsor Defined"
      def:Label="Inclusion/Exclusion Category">
      <CodeListRef CodeListOID="CodeList._IECAT"/>
    </ItemDef>
    <ItemDef OID="TI.IETEST"
      Name="IETEST"
      DataType="text"
      Length="25"
      Comment=" "
      Origin="CRF"
      def:Label="Inclusion/Exclusion Criterion">
      <CodeListRef CodeListOID="CodeList.IETEST"/>
    </ItemDef>
    <ItemDef OID="TI.IETESTCD"
      Name="IETESTCD"
      DataType="text"
      Length="8"
      Comment=" "
      Origin="CRF"
      def:Label="Inclusion/Exclusion Criterion Short Name">
      <CodeListRef CodeListOID="CodeList.IETESTCD"/>
    </ItemDef>
    <ItemDef OID="TI.TIRL"
      Name="TIRL"
      DataType="text"
      Length="1"
      Comment=" "
      Origin="Sponsor Defined"
      def:Label="Inclusion/Exclusion Criterion Rule">
    </ItemDef>
    <ItemDef OID="TS.TSPARM"
      Name="TSPARM"
      DataType="text"
      Length="52"
      Comment=" "
      Origin="Derived"
      def:Label="Trial Summary Parameter ">
      <CodeListRef CodeListOID="CodeList.TSPARM"/>
    </ItemDef>
    <ItemDef OID="TS.TSPARMCD"
      Name="TSPARMCD"
      DataType="text"
      Length="8"
      Comment=" "
      Origin="Derived"
      def:Label="Trial Summary Parameter Short Name ">
      <CodeListRef CodeListOID="CodeList.TSPARMCD"/>
    </ItemDef>
    <ItemDef OID="TS.TSSEQ"
      Name="TSSEQ"
      DataType="integer"
      Length="8"
      Comment=" "
      Origin="Derived"
      def:Label="Sequence Number ">
    </ItemDef>
    <ItemDef OID="TS.TSVAL"
      Name="TSVAL"
      DataType="text"
      Length="154"
      Comment=" "
      Origin="Derived"
      def:Label="Parameter Value">
    </ItemDef>
    <ItemDef OID="TV.ARM"
      Name="ARM"
      DataType="text"
      Length="22"
      Comment=" "
      Origin="CRF"
      def:Label="Description of Arm">
      <CodeListRef CodeListOID="CodeList.ARM"/>
    </ItemDef>
    <ItemDef OID="TV.ARMCD"
      Name="ARMCD"
      DataType="text"
      Length="5"
      Comment=" "
      Origin="CRF"
      def:Label="Arm Code">
      <CodeListRef CodeListOID="CodeList.ARMCD"/>
    </ItemDef>
    <ItemDef OID="TV.EPOCH"
      Name="EPOCH"
      DataType="text"
      Length="200"
      Comment=" "
      Origin="CRF"
      def:Label="Epoch">
    </ItemDef>
    <ItemDef OID="TV.TVENRL"
      Name="TVENRL"
      DataType="text"
      Length="27"
      Comment=" "
      Origin="Sponsor Defined"
      def:Label="Visit End Rule">
    </ItemDef>
    <ItemDef OID="TV.TVSTRL"
      Name="TVSTRL"
      DataType="text"
      Length="26"
      Comment=" "
      Origin="Derived"
      def:Label="Visit Start Rule">
    </ItemDef>
    <ItemDef OID="TV.VISIT"
      Name="VISIT"
      DataType="text"
      Length="200"
      Comment=" "
      Origin="CRF"
      def:Label="Visit Name">
    </ItemDef>
    <ItemDef OID="TV.VISITDY"
      Name="VISITDY"
      DataType="integer"
      Length="8"
      Comment="Study day is calculated as the number of days from the 'Date of first study day' collected on the study enrollment form."
      Origin="Derived"
      def:Label="Planned Study Day of Visit">
    </ItemDef>
    <ItemDef OID="TV.VISITNUM"
      Name="VISITNUM"
      DataType="integer"
      Length="8"
      Comment=" "
      Origin="CRF"
      def:Label="Visit Number">
    </ItemDef>
    <ItemDef OID="USUBJID"
      Name="USUBJID"
      DataType="text"
      Length="12"
      Comment="Created with the following character components:  Study (characters 1-2), underscore, then random number"
      Origin="Sponsor Defined"
      def:Label="Unique Subject Identifier">
    </ItemDef>
    <ItemDef OID="VS.EPOCH"
      Name="EPOCH"
      DataType="text"
      Length="200"
      Comment=" "
      Origin="CRF"
      def:Label="Epoch">
    </ItemDef>
    <ItemDef OID="VS.VISIT"
      Name="VISIT"
      DataType="text"
      Length="200"
      Comment=" "
      Origin="CRF"
      def:Label="Visit Name">
    </ItemDef>
    <ItemDef OID="VS.VISITNUM"
      Name="VISITNUM"
      DataType="integer"
      Length="8"
      Comment=" "
      Origin="CRF"
      def:Label="Visit Number">
    </ItemDef>
    <ItemDef OID="VS.VSBLFL"
      Name="VSBLFL"
      DataType="text"
      Length="1"
      Comment=" "
      Origin="CRF"
      def:Label="Baseline Flag">
      <CodeListRef CodeListOID="CodeList._YNUL"/>
    </ItemDef>
    <ItemDef OID="VS.VSCAT"
      Name="VSCAT"
      DataType="text"
      Length="200"
      Comment=" "
      Origin="Sponsor Defined"
      def:Label="Category for Vital Signs">
      <CodeListRef CodeListOID="CodeList.VSCAT"/>
    </ItemDef>
    <ItemDef OID="VS.VSDTC"
      Name="VSDTC"
      DataType="date"
      Length="19"
      Comment=" "
      Origin="CRF"
      def:Label="Date/Time of Measurements">
    </ItemDef>
    <ItemDef OID="VS.VSDY"
      Name="VSDY"
      DataType="integer"
      Length="8"
      Comment="Study day is calculated as the number of days from the 'Date of first study day' collected on the study enrollment form."
      Origin="Derived"
      def:Label="Study Day of Vital Signs">
    </ItemDef>
    <ItemDef OID="VS.VSORRES"
      Name="VSORRES"
      DataType="text"
      Length="200"
      Comment=" "
      Origin="CRF"
      def:Label="Result or Finding in Original Units">
    </ItemDef>
    <ItemDef OID="VS.VSORRESU"
      Name="VSORRESU"
      DataType="text"
      Length="200"
      Comment=" "
      Origin="CRF"
      def:Label="Original Units">
      <CodeListRef CodeListOID="CodeList.VSORRESU"/>
    </ItemDef>
    <ItemDef OID="VS.VSPOS"
      Name="VSPOS"
      DataType="text"
      Length="200"
      Comment=" "
      Origin="CRF"
      def:Label="Vital Signs Position of Subject">
      <CodeListRef CodeListOID="CodeList.VSPOS"/>
    </ItemDef>
    <ItemDef OID="VS.VSSEQ"
      Name="VSSEQ"
      DataType="integer"
      Length="8"
      Comment=" "
      Origin="CRF"
      def:Label="Sequence Number">
    </ItemDef>
    <ItemDef OID="VS.VSSTRESC"
      Name="VSSTRESC"
      DataType="text"
      Length="200"
      Comment=" "
      Origin="Derived"
      def:Label="Character Result/Finding in Std Format">
    </ItemDef>
    <ItemDef OID="VS.VSSTRESN"
      Name="VSSTRESN"
      DataType="integer"
      Length="8"
      Comment=" "
      Origin="Derived"
      def:Label="Numeric Result/Finding in Standard Units">
    </ItemDef>
    <ItemDef OID="VS.VSSTRESU"
      Name="VSSTRESU"
      DataType="text"
      Length="200"
      Comment=" "
      Origin="CRF"
      def:Label="Standard Units">
      <CodeListRef CodeListOID="CodeList.VSSTRESU"/>
    </ItemDef>
    <ItemDef OID="VS.VSTEST"
      Name="VSTEST"
      DataType="text"
      Length="200"
      Comment=" "
      Origin="CRF"
      def:Label="Vital Signs Test Name">
      <CodeListRef CodeListOID="CodeList.VSTEST"/>
    </ItemDef>
    <ItemDef OID="VS.VSTESTCD"
      Name="VSTESTCD"
      DataType="text"
      Length="8"
      Comment=" "
      Origin="CRF"
      def:Label="Vital Signs Test Short Name">
      <CodeListRef CodeListOID="CodeList.VSTESTCD"/>
    </ItemDef>
    <!-- ************************************************************ -->
    <!-- Codelists are presented below                                -->
    <!-- ************************************************************ -->
    <CodeList OID="CodeList.AEACN"
      Name="AEACN"
      DataType="TEXT">
      <CodeListItem CodedValue=" ">
        <Decode>
          <TranslatedText> </TranslatedText>
        </Decode>
      </CodeListItem>
      <CodeListItem CodedValue="DELAYED DOSE">
        <Decode>
          <TranslatedText>DELAYED DOSE</TranslatedText>
        </Decode>
      </CodeListItem>
      <CodeListItem CodedValue="DISCONTINUED PERMANENTLY">
        <Decode>
          <TranslatedText>DISCONTINUED PERMANENTLY</TranslatedText>
        </Decode>
      </CodeListItem>
      <CodeListItem CodedValue="DISCONTINUED TEMPORARILY">
        <Decode>
          <TranslatedText>DISCONTINUED TEMPORARILY</TranslatedText>
        </Decode>
      </CodeListItem>
      <CodeListItem CodedValue="INCREASED DOSE">
        <Decode>
          <TranslatedText>INCREASED DOSE</TranslatedText>
        </Decode>
      </CodeListItem>
      <CodeListItem CodedValue="NONE">
        <Decode>
          <TranslatedText>NONE</TranslatedText>
        </Decode>
      </CodeListItem>
      <CodeListItem CodedValue="REDUCED DOSE">
        <Decode>
          <TranslatedText>REDUCED DOSE</TranslatedText>
        </Decode>
      </CodeListItem>
    </CodeList>
    <CodeList OID="CodeList.AEOUT"
      Name="AEOUT"
      DataType="TEXT">
      <CodeListItem CodedValue=" ">
        <Decode>
          <TranslatedText> </TranslatedText>
        </Decode>
      </CodeListItem>
      <CodeListItem CodedValue="DEATH">
        <Decode>
          <TranslatedText>DEATH</TranslatedText>
        </Decode>
      </CodeListItem>
      <CodeListItem CodedValue="DECEASED">
        <Decode>
          <TranslatedText>DECEASED</TranslatedText>
        </Decode>
      </CodeListItem>
      <CodeListItem CodedValue="HOSPITALIZATION">
        <Decode>
          <TranslatedText>HOSPITALIZATION</TranslatedText>
        </Decode>
      </CodeListItem>
      <CodeListItem CodedValue="NOT YET RESOLVED, BUT IMPROVING">
        <Decode>
          <TranslatedText>NOT YET RESOLVED, BUT IMPROVING</TranslatedText>
        </Decode>
      </CodeListItem>
      <CodeListItem CodedValue="NOT YET RESOLVED, NO CHANGE">
        <Decode>
          <TranslatedText>NOT YET RESOLVED, NO CHANGE</TranslatedText>
        </Decode>
      </CodeListItem>
      <CodeListItem CodedValue="NOT YET RESOLVED, WORSENING">
        <Decode>
          <TranslatedText>NOT YET RESOLVED, WORSENING</TranslatedText>
        </Decode>
      </CodeListItem>
      <CodeListItem CodedValue="OTHER, SPECIFY">
        <Decode>
          <TranslatedText>OTHER, SPECIFY</TranslatedText>
        </Decode>
      </CodeListItem>
      <CodeListItem CodedValue="RESOLVED, NO SEQUELAE">
        <Decode>
          <TranslatedText>RESOLVED, NO SEQUELAE</TranslatedText>
        </Decode>
      </CodeListItem>
      <CodeListItem CodedValue="RESULTED IN CHRONIC CONDITION, SEVERE AN">
        <Decode>
          <TranslatedText>RESULTED IN CHRONIC CONDITION, SEVERE AN</TranslatedText>
        </Decode>
      </CodeListItem>
      <CodeListItem CodedValue="UNKNOWN">
        <Decode>
          <TranslatedText>UNKNOWN</TranslatedText>
        </Decode>
      </CodeListItem>
    </CodeList>
    <CodeList OID="CodeList.AEREL"
      Name="AEREL"
      DataType="TEXT">
      <CodeListItem CodedValue=" ">
        <Decode>
          <TranslatedText> </TranslatedText>
        </Decode>
      </CodeListItem>
      <CodeListItem CodedValue="DEFINITELY">
        <Decode>
          <TranslatedText>DEFINITELY</TranslatedText>
        </Decode>
      </CodeListItem>
      <CodeListItem CodedValue="DEFINITELY NOT">
        <Decode>
          <TranslatedText>DEFINITELY NOT</TranslatedText>
        </Decode>
      </CodeListItem>
      <CodeListItem CodedValue="POSSIBLY">
        <Decode>
          <TranslatedText>POSSIBLY</TranslatedText>
        </Decode>
      </CodeListItem>
      <CodeListItem CodedValue="PROBABLY">
        <Decode>
          <TranslatedText>PROBABLY</TranslatedText>
        </Decode>
      </CodeListItem>
      <CodeListItem CodedValue="REMOTELY">
        <Decode>
          <TranslatedText>REMOTELY</TranslatedText>
        </Decode>
      </CodeListItem>
      <CodeListItem CodedValue="UNKNOWN">
        <Decode>
          <TranslatedText>UNKNOWN</TranslatedText>
        </Decode>
      </CodeListItem>
    </CodeList>
    <CodeList OID="CodeList.AESEV"
      Name="AESEV"
      DataType="TEXT">
      <CodeListItem CodedValue=" ">
        <Decode>
          <TranslatedText> </TranslatedText>
        </Decode>
      </CodeListItem>
      <CodeListItem CodedValue="LETHAL">
        <Decode>
          <TranslatedText>LETHAL</TranslatedText>
        </Decode>
      </CodeListItem>
      <CodeListItem CodedValue="LIFE-THREATENING">
        <Decode>
          <TranslatedText>LIFE-THREATENING</TranslatedText>
        </Decode>
      </CodeListItem>
      <CodeListItem CodedValue="MILD">
        <Decode>
          <TranslatedText>MILD</TranslatedText>
        </Decode>
      </CodeListItem>
      <CodeListItem CodedValue="MODERATE">
        <Decode>
          <TranslatedText>MODERATE</TranslatedText>
        </Decode>
      </CodeListItem>
      <CodeListItem CodedValue="SEVERE">
        <Decode>
          <TranslatedText>SEVERE</TranslatedText>
        </Decode>
      </CodeListItem>
    </CodeList>
    <CodeList OID="CodeList.ARM"
      Name="ARM"
      DataType="TEXT">
      <CodeListItem CodedValue="BUPRENORPHINE/NALOXONE">
        <Decode>
          <TranslatedText>BUPRENORPHINE/NALOXONE</TranslatedText>
        </Decode>
      </CodeListItem>
      <CodeListItem CodedValue="CLONIDINE">
        <Decode>
          <TranslatedText>CLONIDINE</TranslatedText>
        </Decode>
      </CodeListItem>
      <CodeListItem CodedValue="SCREEN FAILURE">
        <Decode>
          <TranslatedText>SCREEN FAILURE</TranslatedText>
        </Decode>
      </CodeListItem>
    </CodeList>
    <CodeList OID="CodeList.ARMCD"
      Name="ARMCD"
      DataType="TEXT">
      <CodeListItem CodedValue="BUPNAL">
        <Decode>
          <TranslatedText>BUPNAL</TranslatedText>
        </Decode>
      </CodeListItem>
      <CodeListItem CodedValue="BUPNX">
        <Decode>
          <TranslatedText>BUPNX</TranslatedText>
        </Decode>
      </CodeListItem>
      <CodeListItem CodedValue="CLON">
        <Decode>
          <TranslatedText>CLON</TranslatedText>
        </Decode>
      </CodeListItem>
      <CodeListItem CodedValue="SCRFAIL">
        <Decode>
          <TranslatedText>SCRFAIL</TranslatedText>
        </Decode>
      </CodeListItem>
    </CodeList>
    <CodeList OID="CodeList.CMCAT"
      Name="CMCAT"
      DataType="TEXT">
      <CodeListItem CodedValue=" ">
        <Decode>
          <TranslatedText> </TranslatedText>
        </Decode>
      </CodeListItem>
      <CodeListItem CodedValue="ANCILLARY MEDICATIONS">
        <Decode>
          <TranslatedText>ANCILLARY MEDICATIONS</TranslatedText>
        </Decode>
      </CodeListItem>
      <CodeListItem CodedValue="PRIOR AND CONCOMITANT MEDICATIONS">
        <Decode>
          <TranslatedText>PRIOR AND CONCOMITANT MEDICATIONS</TranslatedText>
        </Decode>
      </CodeListItem>
    </CodeList>
    <CodeList OID="CodeList.CMDOSU"
      Name="CMDOSU"
      DataType="TEXT">
      <CodeListItem CodedValue=" ">
        <Decode>
          <TranslatedText> </TranslatedText>
        </Decode>
      </CodeListItem>
      <CodeListItem CodedValue="GRAMS">
        <Decode>
          <TranslatedText>GRAMS</TranslatedText>
        </Decode>
      </CodeListItem>
    </CodeList>
    <CodeList OID="CodeList.CMSCAT"
      Name="CMSCAT"
      DataType="TEXT">
      <CodeListItem CodedValue=" ">
        <Decode>
          <TranslatedText> </TranslatedText>
        </Decode>
      </CodeListItem>
      <CodeListItem CodedValue="BETA BLOCKERS">
        <Decode>
          <TranslatedText>BETA BLOCKERS</TranslatedText>
        </Decode>
      </CodeListItem>
      <CodeListItem CodedValue="BUPRENORPHINE/CLONIDINE (NON-STUDY)">
        <Decode>
          <TranslatedText>BUPRENORPHINE/CLONIDINE (NON-STUDY)</TranslatedText>
        </Decode>
      </CodeListItem>
      <CodeListItem CodedValue="CALCIUM CHANNEL BLOCKERS">
        <Decode>
          <TranslatedText>CALCIUM CHANNEL BLOCKERS</TranslatedText>
        </Decode>
      </CodeListItem>
      <CodeListItem CodedValue="METHADONE">
        <Decode>
          <TranslatedText>METHADONE</TranslatedText>
        </Decode>
      </CodeListItem>
      <CodeListItem CodedValue="OTHER">
        <Decode>
          <TranslatedText>OTHER</TranslatedText>
        </Decode>
      </CodeListItem>
      <CodeListItem CodedValue="TRICYCLICS">
        <Decode>
          <TranslatedText>TRICYCLICS</TranslatedText>
        </Decode>
      </CodeListItem>
    </CodeList>
    <CodeList OID="CodeList.DSCAT"
      Name="DSCAT"
      DataType="TEXT">
      <CodeListItem CodedValue="DISPOSITION EVENT">
        <Decode>
          <TranslatedText>DISPOSITION EVENT</TranslatedText>
        </Decode>
      </CodeListItem>
    </CodeList>
    <CodeList OID="CodeList.DSDECOD"
      Name="DSDECOD"
      DataType="TEXT">
      <CodeListItem CodedValue="ADMINISTRATIVELY WITHDRAWN">
        <Decode>
          <TranslatedText>ADMINISTRATIVELY WITHDRAWN</TranslatedText>
        </Decode>
      </CodeListItem>
      <CodeListItem CodedValue="DEATH">
        <Decode>
          <TranslatedText>DEATH</TranslatedText>
        </Decode>
      </CodeListItem>
      <CodeListItem CodedValue="DECLINED STUDY PARTICIPATION">
        <Decode>
          <TranslatedText>DECLINED STUDY PARTICIPATION</TranslatedText>
        </Decode>
      </CodeListItem>
      <CodeListItem CodedValue="DISCHARGED FOR OTHER (SPECIFY)">
        <Decode>
          <TranslatedText>DISCHARGED FOR OTHER (SPECIFY)</TranslatedText>
        </Decode>
      </CodeListItem>
      <CodeListItem CodedValue="FAILED TO MEET INCLUSION CRITERIA OR MET">
        <Decode>
          <TranslatedText>FAILED TO MEET INCLUSION CRITERIA OR MET</TranslatedText>
        </Decode>
      </CodeListItem>
      <CodeListItem CodedValue="FAILED TO RETURN TO CLINIC">
        <Decode>
          <TranslatedText>FAILED TO RETURN TO CLINIC</TranslatedText>
        </Decode>
      </CodeListItem>
      <CodeListItem CodedValue="HOSPITALIZED OR DEVELOPED ACUTE MEDICAL">
        <Decode>
          <TranslatedText>HOSPITALIZED OR DEVELOPED ACUTE MEDICAL</TranslatedText>
        </Decode>
      </CodeListItem>
      <CodeListItem CodedValue="INCARCERATION (CURRENT OR PENDING)">
        <Decode>
          <TranslatedText>INCARCERATION (CURRENT OR PENDING)</TranslatedText>
        </Decode>
      </CodeListItem>
      <CodeListItem CodedValue="INPATIENT DETOX OR TREATMENT">
        <Decode>
          <TranslatedText>INPATIENT DETOX OR TREATMENT</TranslatedText>
        </Decode>
      </CodeListItem>
      <CodeListItem CodedValue="MOVED FROM AREA (CURRENT OR PENDING)">
        <Decode>
          <TranslatedText>MOVED FROM AREA (CURRENT OR PENDING)</TranslatedText>
        </Decode>
      </CodeListItem>
      <CodeListItem CodedValue="PARTICIPANT CAN NO LONGER ATTEND CLINIC">
        <Decode>
          <TranslatedText>PARTICIPANT CAN NO LONGER ATTEND CLINIC</TranslatedText>
        </Decode>
      </CodeListItem>
      <CodeListItem CodedValue="PARTICIPANT COMPLETED ACTIVE PHASE OF ST">
        <Decode>
          <TranslatedText>PARTICIPANT COMPLETED ACTIVE PHASE OF ST</TranslatedText>
        </Decode>
      </CodeListItem>
      <CodeListItem CodedValue="PARTICIPANT HAS DEVELOPED SENSITIVITY OR">
        <Decode>
          <TranslatedText>PARTICIPANT HAS DEVELOPED SENSITIVITY OR</TranslatedText>
        </Decode>
      </CodeListItem>
      <CodeListItem CodedValue="PARTICIPANT HAS MOVED FROM THE AREA">
        <Decode>
          <TranslatedText>PARTICIPANT HAS MOVED FROM THE AREA</TranslatedText>
        </Decode>
      </CodeListItem>
      <CodeListItem CodedValue="PARTICIPANT IS IN A CONTROLLED ENVIRONME">
        <Decode>
          <TranslatedText>PARTICIPANT IS IN A CONTROLLED ENVIRONME</TranslatedText>
        </Decode>
      </CodeListItem>
      <CodeListItem CodedValue="PARTICIPANT NO LONGER ATTENDS CLINIC">
        <Decode>
          <TranslatedText>PARTICIPANT NO LONGER ATTENDS CLINIC</TranslatedText>
        </Decode>
      </CodeListItem>
      <CodeListItem CodedValue="PARTICIPANT WITHDREW FROM STUDY">
        <Decode>
          <TranslatedText>PARTICIPANT WITHDREW FROM STUDY</TranslatedText>
        </Decode>
      </CodeListItem>
      <CodeListItem CodedValue="VOLUNTARY TRANSFERRED TO ANOTHER TREATME">
        <Decode>
          <TranslatedText>VOLUNTARY TRANSFERRED TO ANOTHER TREATME</TranslatedText>
        </Decode>
      </CodeListItem>
    </CodeList>
    <CodeList OID="CodeList.ELEMENT"
      Name="ELEMENT"
      DataType="TEXT">
      <CodeListItem CodedValue="BUPRENORPHINE/NALOXONE">
        <Decode>
          <TranslatedText>BUPRENORPHINE/NALOXONE</TranslatedText>
        </Decode>
      </CodeListItem>
      <CodeListItem CodedValue="CLONIDINE">
        <Decode>
          <TranslatedText>CLONIDINE</TranslatedText>
        </Decode>
      </CodeListItem>
      <CodeListItem CodedValue="FOLLOWUP 1">
        <Decode>
          <TranslatedText>FOLLOWUP 1</TranslatedText>
        </Decode>
      </CodeListItem>
      <CodeListItem CodedValue="FOLLOWUP 2">
        <Decode>
          <TranslatedText>FOLLOWUP 2</TranslatedText>
        </Decode>
      </CodeListItem>
      <CodeListItem CodedValue="FOLLOWUP 3">
        <Decode>
          <TranslatedText>FOLLOWUP 3</TranslatedText>
        </Decode>
      </CodeListItem>
      <CodeListItem CodedValue="SCREENING">
        <Decode>
          <TranslatedText>SCREENING</TranslatedText>
        </Decode>
      </CodeListItem>
      <CodeListItem CodedValue="TREATMENT BUPRENORPHINE/NALOXONE">
        <Decode>
          <TranslatedText>TREATMENT BUPRENORPHINE/NALOXONE</TranslatedText>
        </Decode>
      </CodeListItem>
      <CodeListItem CodedValue="TREATMENT CLONIDINE">
        <Decode>
          <TranslatedText>TREATMENT CLONIDINE</TranslatedText>
        </Decode>
      </CodeListItem>
    </CodeList>
    <CodeList OID="CodeList.ETCD"
      Name="ETCD"
      DataType="TEXT">
      <CodeListItem CodedValue="BUPNX">
        <Decode>
          <TranslatedText>BUPNX</TranslatedText>
        </Decode>
      </CodeListItem>
      <CodeListItem CodedValue="CLON">
        <Decode>
          <TranslatedText>CLON</TranslatedText>
        </Decode>
      </CodeListItem>
      <CodeListItem CodedValue="FU1">
        <Decode>
          <TranslatedText>FU1</TranslatedText>
        </Decode>
      </CodeListItem>
      <CodeListItem CodedValue="FU2">
        <Decode>
          <TranslatedText>FU2</TranslatedText>
        </Decode>
      </CodeListItem>
      <CodeListItem CodedValue="FU3">
        <Decode>
          <TranslatedText>FU3</TranslatedText>
        </Decode>
      </CodeListItem>
      <CodeListItem CodedValue="SCREEN">
        <Decode>
          <TranslatedText>SCREEN</TranslatedText>
        </Decode>
      </CodeListItem>
    </CodeList>
    <CodeList OID="CodeList.ETHNIC"
      Name="ETHNIC"
      DataType="TEXT">
      <CodeListItem CodedValue=" ">
        <Decode>
          <TranslatedText> </TranslatedText>
        </Decode>
      </CodeListItem>
      <CodeListItem CodedValue="HISPANIC">
        <Decode>
          <TranslatedText>HISPANIC</TranslatedText>
        </Decode>
      </CodeListItem>
    </CodeList>
    <CodeList OID="CodeList.EXCAT"
      Name="EXCAT"
      DataType="TEXT">
      <CodeListItem CodedValue="BUP/NALOXONE DOSAGE LOG">
        <Decode>
          <TranslatedText>BUP/NALOXONE DOSAGE LOG</TranslatedText>
        </Decode>
      </CodeListItem>
      <CodeListItem CodedValue="CLONIDINE DOSAGE LOG">
        <Decode>
          <TranslatedText>CLONIDINE DOSAGE LOG</TranslatedText>
        </Decode>
      </CodeListItem>
    </CodeList>
    <CodeList OID="CodeList.EXDOSFRM"
      Name="EXDOSFRM"
      DataType="TEXT">
      <CodeListItem CodedValue="PATCH">
        <Decode>
          <TranslatedText>PATCH</TranslatedText>
        </Decode>
      </CodeListItem>
      <CodeListItem CodedValue="TABLET">
        <Decode>
          <TranslatedText>TABLET</TranslatedText>
        </Decode>
      </CodeListItem>
    </CodeList>
    <CodeList OID="CodeList.EXDOSU"
      Name="EXDOSU"
      DataType="TEXT">
      <CodeListItem CodedValue="MG">
        <Decode>
          <TranslatedText>MG</TranslatedText>
        </Decode>
      </CodeListItem>
      <CodeListItem CodedValue="PATCH">
        <Decode>
          <TranslatedText>PATCH</TranslatedText>
        </Decode>
      </CodeListItem>
    </CodeList>
    <CodeList OID="CodeList.EXROUTE"
      Name="EXROUTE"
      DataType="TEXT">
      <CodeListItem CodedValue=" ">
        <Decode>
          <TranslatedText> </TranslatedText>
        </Decode>
      </CodeListItem>
      <CodeListItem CodedValue="INGESTED">
        <Decode>
          <TranslatedText>INGESTED</TranslatedText>
        </Decode>
      </CodeListItem>
      <CodeListItem CodedValue="TRANSDERMAL">
        <Decode>
          <TranslatedText>TRANSDERMAL</TranslatedText>
        </Decode>
      </CodeListItem>
    </CodeList>
    <CodeList OID="CodeList.IETEST"
      Name="IETEST"
      DataType="TEXT">
      <CodeListItem CodedValue="ABUSE OR DEPENDENCE">
        <Decode>
          <TranslatedText>ABUSE OR DEPENDENCE</TranslatedText>
        </Decode>
      </CodeListItem>
      <CodeListItem CodedValue="ACUTE MEDICAL CONDITION">
        <Decode>
          <TranslatedText>ACUTE MEDICAL CONDITION</TranslatedText>
        </Decode>
      </CodeListItem>
      <CodeListItem CodedValue="ALLERGY">
        <Decode>
          <TranslatedText>ALLERGY</TranslatedText>
        </Decode>
      </CodeListItem>
      <CodeListItem CodedValue="ANUABLE TO REMAIN IN AREA">
        <Decode>
          <TranslatedText>ANUABLE TO REMAIN IN AREA</TranslatedText>
        </Decode>
      </CodeListItem>
      <CodeListItem CodedValue="BETA-BLOCKERS">
        <Decode>
          <TranslatedText>BETA-BLOCKERS</TranslatedText>
        </Decode>
      </CodeListItem>
      <CodeListItem CodedValue="BIRTH CONTROL">
        <Decode>
          <TranslatedText>BIRTH CONTROL</TranslatedText>
        </Decode>
      </CodeListItem>
      <CodeListItem CodedValue="BLOOD PRESSURE">
        <Decode>
          <TranslatedText>BLOOD PRESSURE</TranslatedText>
        </Decode>
      </CodeListItem>
      <CodeListItem CodedValue="DEPENDENCE ON ALCOHOL">
        <Decode>
          <TranslatedText>DEPENDENCE ON ALCOHOL</TranslatedText>
        </Decode>
      </CodeListItem>
      <CodeListItem CodedValue="DETOXIFICATION">
        <Decode>
          <TranslatedText>DETOXIFICATION</TranslatedText>
        </Decode>
      </CodeListItem>
      <CodeListItem CodedValue="ECG ABNORMALITIES">
        <Decode>
          <TranslatedText>ECG ABNORMALITIES</TranslatedText>
        </Decode>
      </CodeListItem>
      <CodeListItem CodedValue="GOOD HEALTH">
        <Decode>
          <TranslatedText>GOOD HEALTH</TranslatedText>
        </Decode>
      </CodeListItem>
      <CodeListItem CodedValue="INFORMED CONSENT">
        <Decode>
          <TranslatedText>INFORMED CONSENT</TranslatedText>
        </Decode>
      </CodeListItem>
      <CodeListItem CodedValue="OTHER STUDY">
        <Decode>
          <TranslatedText>OTHER STUDY</TranslatedText>
        </Decode>
      </CodeListItem>
      <CodeListItem CodedValue="PENDING LEGAL ACTION">
        <Decode>
          <TranslatedText>PENDING LEGAL ACTION</TranslatedText>
        </Decode>
      </CodeListItem>
      <CodeListItem CodedValue="PREGNANT">
        <Decode>
          <TranslatedText>PREGNANT</TranslatedText>
        </Decode>
      </CodeListItem>
      <CodeListItem CodedValue="SUICIDE RISK">
        <Decode>
          <TranslatedText>SUICIDE RISK</TranslatedText>
        </Decode>
      </CodeListItem>
    </CodeList>
    <CodeList OID="CodeList.IETESTCD"
      Name="IETESTCD"
      DataType="TEXT">
      <CodeListItem CodedValue="INC00A1">
        <Decode>
          <TranslatedText>ABUSE OR DEPENDENCE</TranslatedText>
        </Decode>
      </CodeListItem>
      <CodeListItem CodedValue="INC00A2">
        <Decode>
          <TranslatedText>BLOOD PRESSURE</TranslatedText>
        </Decode>
      </CodeListItem>
      <CodeListItem CodedValue="INC00A3">
        <Decode>
          <TranslatedText>GOOD HEALTH</TranslatedText>
        </Decode>
      </CodeListItem>
      <CodeListItem CodedValue="INC00A4">
        <Decode>
          <TranslatedText>INFORMED CONSENT</TranslatedText>
        </Decode>
      </CodeListItem>
      <CodeListItem CodedValue="INC00A5">
        <Decode>
          <TranslatedText>BIRTH CONTROL</TranslatedText>
        </Decode>
      </CodeListItem>
      <CodeListItem CodedValue="INC00B1">
        <Decode>
          <TranslatedText>ACUTE MEDICAL CONDITION</TranslatedText>
        </Decode>
      </CodeListItem>
      <CodeListItem CodedValue="INC00B10">
        <Decode>
          <TranslatedText>ANUABLE TO REMAIN IN AREA</TranslatedText>
        </Decode>
      </CodeListItem>
      <CodeListItem CodedValue="INC00B11">
        <Decode>
          <TranslatedText>PREGNANT</TranslatedText>
        </Decode>
      </CodeListItem>
      <CodeListItem CodedValue="INC00B2">
        <Decode>
          <TranslatedText>ECG ABNORMALITIES</TranslatedText>
        </Decode>
      </CodeListItem>
      <CodeListItem CodedValue="INC00B3">
        <Decode>
          <TranslatedText>ALLERGY</TranslatedText>
        </Decode>
      </CodeListItem>
      <CodeListItem CodedValue="INC00B4">
        <Decode>
          <TranslatedText>BETA-BLOCKERS</TranslatedText>
        </Decode>
      </CodeListItem>
      <CodeListItem CodedValue="INC00B5">
        <Decode>
          <TranslatedText>SUICIDE RISK</TranslatedText>
        </Decode>
      </CodeListItem>
      <CodeListItem CodedValue="INC00B6">
        <Decode>
          <TranslatedText>DEPENDENCE ON ALCOHOL</TranslatedText>
        </Decode>
      </CodeListItem>
      <CodeListItem CodedValue="INC00B7">
        <Decode>
          <TranslatedText>OTHER STUDY</TranslatedText>
        </Decode>
      </CodeListItem>
      <CodeListItem CodedValue="INC00B8">
        <Decode>
          <TranslatedText>DETOXIFICATION</TranslatedText>
        </Decode>
      </CodeListItem>
      <CodeListItem CodedValue="INC00B9">
        <Decode>
          <TranslatedText>PENDING LEGAL ACTION</TranslatedText>
        </Decode>
      </CodeListItem>
    </CodeList>
    <CodeList OID="CodeList.LBCAT"
      Name="LBCAT"
      DataType="TEXT">
      <CodeListItem CodedValue="CHEMISTRY">
        <Decode>
          <TranslatedText>CHEMISTRY</TranslatedText>
        </Decode>
      </CodeListItem>
      <CodeListItem CodedValue="DRUG SCREEN">
        <Decode>
          <TranslatedText>DRUG SCREEN</TranslatedText>
        </Decode>
      </CodeListItem>
    </CodeList>
    <CodeList OID="CodeList.LBMETHOD"
      Name="LBMETHOD"
      DataType="TEXT">
      <CodeListItem CodedValue="ACCUTEST">
        <Decode>
          <TranslatedText>ACCUTEST</TranslatedText>
        </Decode>
      </CodeListItem>
      <CodeListItem CodedValue="CENTRAL LAB">
        <Decode>
          <TranslatedText>CENTRAL LAB</TranslatedText>
        </Decode>
      </CodeListItem>
    </CodeList>
    <CodeList OID="CodeList.LBNRIND"
      Name="LBNRIND"
      DataType="TEXT">
      <CodeListItem CodedValue=" ">
        <Decode>
          <TranslatedText> </TranslatedText>
        </Decode>
      </CodeListItem>
    </CodeList>
    <CodeList OID="CodeList.LBORRESU"
      Name="LBORRESU"
      DataType="TEXT">
      <CodeListItem CodedValue=" ">
        <Decode>
          <TranslatedText> </TranslatedText>
        </Decode>
      </CodeListItem>
      <CodeListItem CodedValue="mg/dL">
        <Decode>
          <TranslatedText>mg/dL</TranslatedText>
        </Decode>
      </CodeListItem>
    </CodeList>
    <CodeList OID="CodeList.LBSPEC"
      Name="LBSPEC"
      DataType="TEXT">
      <CodeListItem CodedValue="URINE">
        <Decode>
          <TranslatedText>URINE</TranslatedText>
        </Decode>
      </CodeListItem>
    </CodeList>
    <CodeList OID="CodeList.LBSTRESU"
      Name="LBSTRESU"
      DataType="TEXT">
      <CodeListItem CodedValue=" ">
        <Decode>
          <TranslatedText> </TranslatedText>
        </Decode>
      </CodeListItem>
      <CodeListItem CodedValue="mg/dL">
        <Decode>
          <TranslatedText>mg/dL</TranslatedText>
        </Decode>
      </CodeListItem>
    </CodeList>
    <CodeList OID="CodeList.LBTEST"
      Name="LBTEST"
      DataType="TEXT">
      <CodeListItem CodedValue="AMPHETAMINES">
        <Decode>
          <TranslatedText>AMPHETAMINES</TranslatedText>
        </Decode>
      </CodeListItem>
      <CodeListItem CodedValue="BARBITURATES">
        <Decode>
          <TranslatedText>BARBITURATES</TranslatedText>
        </Decode>
      </CodeListItem>
      <CodeListItem CodedValue="BENZODIAZEPINES">
        <Decode>
          <TranslatedText>BENZODIAZEPINES</TranslatedText>
        </Decode>
      </CodeListItem>
      <CodeListItem CodedValue="COCAINE">
        <Decode>
          <TranslatedText>COCAINE</TranslatedText>
        </Decode>
      </CodeListItem>
      <CodeListItem CodedValue="CREATININE">
        <Decode>
          <TranslatedText>CREATININE</TranslatedText>
        </Decode>
      </CodeListItem>
      <CodeListItem CodedValue="METHADONE">
        <Decode>
          <TranslatedText>METHADONE</TranslatedText>
        </Decode>
      </CodeListItem>
      <CodeListItem CodedValue="METHAMPHETAMINE">
        <Decode>
          <TranslatedText>METHAMPHETAMINE</TranslatedText>
        </Decode>
      </CodeListItem>
      <CodeListItem CodedValue="MORPHINE">
        <Decode>
          <TranslatedText>MORPHINE</TranslatedText>
        </Decode>
      </CodeListItem>
      <CodeListItem CodedValue="NONE">
        <Decode>
          <TranslatedText>NONE</TranslatedText>
        </Decode>
      </CodeListItem>
      <CodeListItem CodedValue="OPIATE">
        <Decode>
          <TranslatedText>OPIATE</TranslatedText>
        </Decode>
      </CodeListItem>
      <CodeListItem CodedValue="PCP">
        <Decode>
          <TranslatedText>PCP</TranslatedText>
        </Decode>
      </CodeListItem>
      <CodeListItem CodedValue="TCA">
        <Decode>
          <TranslatedText>TCA</TranslatedText>
        </Decode>
      </CodeListItem>
      <CodeListItem CodedValue="THC">
        <Decode>
          <TranslatedText>THC</TranslatedText>
        </Decode>
      </CodeListItem>
    </CodeList>
    <CodeList OID="CodeList.LBTESTCD"
      Name="LBTESTCD"
      DataType="TEXT">
      <CodeListItem CodedValue="AMPHET">
        <Decode>
          <TranslatedText>AMPHETAMINES</TranslatedText>
        </Decode>
      </CodeListItem>
      <CodeListItem CodedValue="BARBIT">
        <Decode>
          <TranslatedText>BARBITURATES</TranslatedText>
        </Decode>
      </CodeListItem>
      <CodeListItem CodedValue="BENZOD">
        <Decode>
          <TranslatedText>BENZODIAZEPINES</TranslatedText>
        </Decode>
      </CodeListItem>
      <CodeListItem CodedValue="COCAINE">
        <Decode>
          <TranslatedText>COCAINE</TranslatedText>
        </Decode>
      </CodeListItem>
      <CodeListItem CodedValue="CREAT">
        <Decode>
          <TranslatedText>CREATININE</TranslatedText>
        </Decode>
      </CodeListItem>
      <CodeListItem CodedValue="METH">
        <Decode>
          <TranslatedText>METHAMPHETAMINE</TranslatedText>
        </Decode>
      </CodeListItem>
      <CodeListItem CodedValue="METHADON">
        <Decode>
          <TranslatedText>METHADONE</TranslatedText>
        </Decode>
      </CodeListItem>
      <CodeListItem CodedValue="MORPHINE">
        <Decode>
          <TranslatedText>MORPHINE</TranslatedText>
        </Decode>
      </CodeListItem>
      <CodeListItem CodedValue="NONE">
        <Decode>
          <TranslatedText>NONE</TranslatedText>
        </Decode>
      </CodeListItem>
      <CodeListItem CodedValue="OPIATE">
        <Decode>
          <TranslatedText>OPIATE</TranslatedText>
        </Decode>
      </CodeListItem>
      <CodeListItem CodedValue="PCP">
        <Decode>
          <TranslatedText>PCP</TranslatedText>
        </Decode>
      </CodeListItem>
      <CodeListItem CodedValue="TCA">
        <Decode>
          <TranslatedText>TCA</TranslatedText>
        </Decode>
      </CodeListItem>
      <CodeListItem CodedValue="THC">
        <Decode>
          <TranslatedText>THC</TranslatedText>
        </Decode>
      </CodeListItem>
    </CodeList>
    <CodeList OID="CodeList.PEEVAL"
      Name="PEEVAL"
      DataType="TEXT">
      <CodeListItem CodedValue=" ">
        <Decode>
          <TranslatedText> </TranslatedText>
        </Decode>
      </CodeListItem>
      <CodeListItem CodedValue="AB">
        <Decode>
          <TranslatedText>AB</TranslatedText>
        </Decode>
      </CodeListItem>
      <CodeListItem CodedValue="DAO">
        <Decode>
          <TranslatedText>DAO</TranslatedText>
        </Decode>
      </CodeListItem>
      <CodeListItem CodedValue="HBP">
        <Decode>
          <TranslatedText>HBP</TranslatedText>
        </Decode>
      </CodeListItem>
      <CodeListItem CodedValue="HDB">
        <Decode>
          <TranslatedText>HDB</TranslatedText>
        </Decode>
      </CodeListItem>
      <CodeListItem CodedValue="LSC">
        <Decode>
          <TranslatedText>LSC</TranslatedText>
        </Decode>
      </CodeListItem>
      <CodeListItem CodedValue="MFS">
        <Decode>
          <TranslatedText>MFS</TranslatedText>
        </Decode>
      </CodeListItem>
      <CodeListItem CodedValue="MJR">
        <Decode>
          <TranslatedText>MJR</TranslatedText>
        </Decode>
      </CodeListItem>
      <CodeListItem CodedValue="SMK">
        <Decode>
          <TranslatedText>SMK</TranslatedText>
        </Decode>
      </CodeListItem>
    </CodeList>
    <CodeList OID="CodeList.PESTRESU"
      Name="PESTRESU"
      DataType="TEXT">
      <CodeListItem CodedValue=" ">
        <Decode>
          <TranslatedText> </TranslatedText>
        </Decode>
      </CodeListItem>
    </CodeList>
    <CodeList OID="CodeList.PETEST"
      Name="PETEST"
      DataType="TEXT">
      <CodeListItem CodedValue="ABDOMEN">
        <Decode>
          <TranslatedText>ABDOMEN</TranslatedText>
        </Decode>
      </CodeListItem>
      <CodeListItem CodedValue="BREAST">
        <Decode>
          <TranslatedText>BREAST</TranslatedText>
        </Decode>
      </CodeListItem>
      <CodeListItem CodedValue="CHEST">
        <Decode>
          <TranslatedText>CHEST</TranslatedText>
        </Decode>
      </CodeListItem>
      <CodeListItem CodedValue="EAR, NOSE, THROAT">
        <Decode>
          <TranslatedText>EAR, NOSE, THROAT</TranslatedText>
        </Decode>
      </CodeListItem>
      <CodeListItem CodedValue="EXTREMITIES">
        <Decode>
          <TranslatedText>EXTREMITIES</TranslatedText>
        </Decode>
      </CodeListItem>
      <CodeListItem CodedValue="GENITALIA">
        <Decode>
          <TranslatedText>GENITALIA</TranslatedText>
        </Decode>
      </CodeListItem>
      <CodeListItem CodedValue="HEAD">
        <Decode>
          <TranslatedText>HEAD</TranslatedText>
        </Decode>
      </CodeListItem>
      <CodeListItem CodedValue="HEART">
        <Decode>
          <TranslatedText>HEART</TranslatedText>
        </Decode>
      </CodeListItem>
      <CodeListItem CodedValue="LUNGS">
        <Decode>
          <TranslatedText>LUNGS</TranslatedText>
        </Decode>
      </CodeListItem>
      <CodeListItem CodedValue="LYMPH NODES">
        <Decode>
          <TranslatedText>LYMPH NODES</TranslatedText>
        </Decode>
      </CodeListItem>
      <CodeListItem CodedValue="MUSCULOSKELETAL">
        <Decode>
          <TranslatedText>MUSCULOSKELETAL</TranslatedText>
        </Decode>
      </CodeListItem>
      <CodeListItem CodedValue="NEUROLOGICAL">
        <Decode>
          <TranslatedText>NEUROLOGICAL</TranslatedText>
        </Decode>
      </CodeListItem>
      <CodeListItem CodedValue="OTHER">
        <Decode>
          <TranslatedText>OTHER</TranslatedText>
        </Decode>
      </CodeListItem>
      <CodeListItem CodedValue="PELVIC">
        <Decode>
          <TranslatedText>PELVIC</TranslatedText>
        </Decode>
      </CodeListItem>
      <CodeListItem CodedValue="PROSTATE">
        <Decode>
          <TranslatedText>PROSTATE</TranslatedText>
        </Decode>
      </CodeListItem>
      <CodeListItem CodedValue="RECTAL">
        <Decode>
          <TranslatedText>RECTAL</TranslatedText>
        </Decode>
      </CodeListItem>
      <CodeListItem CodedValue="SKIN, HAIR, NAILS">
        <Decode>
          <TranslatedText>SKIN, HAIR, NAILS</TranslatedText>
        </Decode>
      </CodeListItem>
    </CodeList>
    <CodeList OID="CodeList.PETESTCD"
      Name="PETESTCD"
      DataType="TEXT">
      <CodeListItem CodedValue="ABDOMEN">
        <Decode>
          <TranslatedText>ABDOMEN</TranslatedText>
        </Decode>
      </CodeListItem>
      <CodeListItem CodedValue="BREAST">
        <Decode>
          <TranslatedText>BREAST</TranslatedText>
        </Decode>
      </CodeListItem>
      <CodeListItem CodedValue="CHEST">
        <Decode>
          <TranslatedText>CHEST</TranslatedText>
        </Decode>
      </CodeListItem>
      <CodeListItem CodedValue="ENT">
        <Decode>
          <TranslatedText>EAR, NOSE, THROAT</TranslatedText>
        </Decode>
      </CodeListItem>
      <CodeListItem CodedValue="EXTREM">
        <Decode>
          <TranslatedText>EXTREMITIES</TranslatedText>
        </Decode>
      </CodeListItem>
      <CodeListItem CodedValue="GENITAL">
        <Decode>
          <TranslatedText>GENITALIA</TranslatedText>
        </Decode>
      </CodeListItem>
      <CodeListItem CodedValue="HEAD">
        <Decode>
          <TranslatedText>HEAD</TranslatedText>
        </Decode>
      </CodeListItem>
      <CodeListItem CodedValue="HEART">
        <Decode>
          <TranslatedText>HEART</TranslatedText>
        </Decode>
      </CodeListItem>
      <CodeListItem CodedValue="LUNGS">
        <Decode>
          <TranslatedText>LUNGS</TranslatedText>
        </Decode>
      </CodeListItem>
      <CodeListItem CodedValue="LYMPH">
        <Decode>
          <TranslatedText>LYMPH NODES</TranslatedText>
        </Decode>
      </CodeListItem>
      <CodeListItem CodedValue="MUSCULO">
        <Decode>
          <TranslatedText>MUSCULOSKELETAL</TranslatedText>
        </Decode>
      </CodeListItem>
      <CodeListItem CodedValue="NEURO">
        <Decode>
          <TranslatedText>NEUROLOGICAL</TranslatedText>
        </Decode>
      </CodeListItem>
      <CodeListItem CodedValue="OTHER">
        <Decode>
          <TranslatedText>OTHER</TranslatedText>
        </Decode>
      </CodeListItem>
      <CodeListItem CodedValue="PELVIC">
        <Decode>
          <TranslatedText>PELVIC</TranslatedText>
        </Decode>
      </CodeListItem>
      <CodeListItem CodedValue="PROSTATE">
        <Decode>
          <TranslatedText>PROSTATE</TranslatedText>
        </Decode>
      </CodeListItem>
      <CodeListItem CodedValue="RECTAL">
        <Decode>
          <TranslatedText>RECTAL</TranslatedText>
        </Decode>
      </CodeListItem>
      <CodeListItem CodedValue="SKIN">
        <Decode>
          <TranslatedText>SKIN, HAIR, NAILS</TranslatedText>
        </Decode>
      </CodeListItem>
    </CodeList>
    <CodeList OID="CodeList.QSCAT"
      Name="QSCAT"
      DataType="TEXT">
      <CodeListItem CodedValue="ADDICTION SEVERITY INDEX LITE">
        <Decode>
          <TranslatedText>ADDICTION SEVERITY INDEX LITE</TranslatedText>
        </Decode>
      </CodeListItem>
      <CodeListItem CodedValue="ADJECTIVE RATING SCALE OF WITHDRAWAL">
        <Decode>
          <TranslatedText>ADJECTIVE RATING SCALE OF WITHDRAWAL</TranslatedText>
        </Decode>
      </CodeListItem>
      <CodeListItem CodedValue="CLIENT SATISFACTION QUESTIONNAIRE">
        <Decode>
          <TranslatedText>CLIENT SATISFACTION QUESTIONNAIRE</TranslatedText>
        </Decode>
      </CodeListItem>
      <CodeListItem CodedValue="CLINICAL OPIATE WITHDRAWAL SCALE (COWS)">
        <Decode>
          <TranslatedText>CLINICAL OPIATE WITHDRAWAL SCALE (COWS)</TranslatedText>
        </Decode>
      </CodeListItem>
      <CodeListItem CodedValue="DSM-IV CRITERIA:SUBSTANCE RELATED DISORD">
        <Decode>
          <TranslatedText>DSM-IV CRITERIA:SUBSTANCE RELATED DISORD</TranslatedText>
        </Decode>
      </CodeListItem>
      <CodeListItem CodedValue="HIV RISK BEHAVIOR SCALE">
        <Decode>
          <TranslatedText>HIV RISK BEHAVIOR SCALE</TranslatedText>
        </Decode>
      </CodeListItem>
      <CodeListItem CodedValue="SF-36 - HEALTH STATUS">
        <Decode>
          <TranslatedText>SF-36 - HEALTH STATUS</TranslatedText>
        </Decode>
      </CodeListItem>
      <CodeListItem CodedValue="VISUAL ANALOG SCALE">
        <Decode>
          <TranslatedText>VISUAL ANALOG SCALE</TranslatedText>
        </Decode>
      </CodeListItem>
    </CodeList>
    <CodeList OID="CodeList.QSSCAT"
      Name="QSSCAT"
      DataType="TEXT">
      <CodeListItem CodedValue="ADJECTIVE RATING SCALE OF WITHDRAWAL">
        <Decode>
          <TranslatedText>ADJECTIVE RATING SCALE OF WITHDRAWAL</TranslatedText>
        </Decode>
      </CodeListItem>
      <CodeListItem CodedValue="ALCOHOL/DRUGS">
        <Decode>
          <TranslatedText>ALCOHOL/DRUGS</TranslatedText>
        </Decode>
      </CodeListItem>
      <CodeListItem CodedValue="CLIENT SATISFACTION QUESTIONNAIRE">
        <Decode>
          <TranslatedText>CLIENT SATISFACTION QUESTIONNAIRE</TranslatedText>
        </Decode>
      </CodeListItem>
      <CodeListItem CodedValue="CLINICAL OPIATE WITHDRAWAL SCALE (COWS)">
        <Decode>
          <TranslatedText>CLINICAL OPIATE WITHDRAWAL SCALE (COWS)</TranslatedText>
        </Decode>
      </CodeListItem>
      <CodeListItem CodedValue="DSM-IV CRITERIA:SUBSTANCE RELATED DISORD">
        <Decode>
          <TranslatedText>DSM-IV CRITERIA:SUBSTANCE RELATED DISORD</TranslatedText>
        </Decode>
      </CodeListItem>
      <CodeListItem CodedValue="EMPLOYMENT/SUPPORT STATUS">
        <Decode>
          <TranslatedText>EMPLOYMENT/SUPPORT STATUS</TranslatedText>
        </Decode>
      </CodeListItem>
      <CodeListItem CodedValue="FAMILY/SOCIAL RELATIONSHIPS">
        <Decode>
          <TranslatedText>FAMILY/SOCIAL RELATIONSHIPS</TranslatedText>
        </Decode>
      </CodeListItem>
      <CodeListItem CodedValue="GENERAL INFORMATION">
        <Decode>
          <TranslatedText>GENERAL INFORMATION</TranslatedText>
        </Decode>
      </CodeListItem>
      <CodeListItem CodedValue="HIV RISK BEHAVIOR SCALE">
        <Decode>
          <TranslatedText>HIV RISK BEHAVIOR SCALE</TranslatedText>
        </Decode>
      </CodeListItem>
      <CodeListItem CodedValue="LEGAL STATUS">
        <Decode>
          <TranslatedText>LEGAL STATUS</TranslatedText>
        </Decode>
      </CodeListItem>
      <CodeListItem CodedValue="MEDICAL STATUS">
        <Decode>
          <TranslatedText>MEDICAL STATUS</TranslatedText>
        </Decode>
      </CodeListItem>
      <CodeListItem CodedValue="PSYCHIATRIC STATUS">
        <Decode>
          <TranslatedText>PSYCHIATRIC STATUS</TranslatedText>
        </Decode>
      </CodeListItem>
      <CodeListItem CodedValue="SF-36 - HEALTH STATUS">
        <Decode>
          <TranslatedText>SF-36 - HEALTH STATUS</TranslatedText>
        </Decode>
      </CodeListItem>
      <CodeListItem CodedValue="VISUAL ANALOG SCALE">
        <Decode>
          <TranslatedText>VISUAL ANALOG SCALE</TranslatedText>
        </Decode>
      </CodeListItem>
    </CodeList>
    <CodeList OID="CodeList.QSTEST"
      Name="QSTEST"
      DataType="TEXT">
      <CodeListItem CodedValue="30 DAYS- HOW MANY DETAINED/INCARCERATED">
        <Decode>
          <TranslatedText>30 DAYS- HOW MANY DETAINED/INCARCERATED</TranslatedText>
        </Decode>
      </CodeListItem>
      <CodeListItem CodedValue="30 DAYS- HOW MANY ILLEGAL ACT. FOR PROFI">
        <Decode>
          <TranslatedText>30 DAYS- HOW MANY ILLEGAL ACT. FOR PROFI</TranslatedText>
        </Decode>
      </CodeListItem>
      <CodeListItem CodedValue=">1 SUBSTANCE/DAY (INC. ALCOHOL)-LIFETIME">
        <Decode>
          <TranslatedText>>1 SUBSTANCE/DAY (INC. ALCOHOL)-LIFETIME</TranslatedText>
        </Decode>
      </CodeListItem>
      <CodeListItem CodedValue=">1 SUBSTANCE/DAY (INC. ALCOHOL)-PAST 30D">
        <Decode>
          <TranslatedText>>1 SUBSTANCE/DAY (INC. ALCOHOL)-PAST 30D</TranslatedText>
        </Decode>
      </CodeListItem>
      <CodeListItem CodedValue="ABDOMINAL CRAMPS">
        <Decode>
          <TranslatedText>ABDOMINAL CRAMPS</TranslatedText>
        </Decode>
      </CodeListItem>
      <CodeListItem CodedValue="ABUSE-TOTAL=1+ PRESENT-ALCOHOL">
        <Decode>
          <TranslatedText>ABUSE-TOTAL=1+ PRESENT-ALCOHOL</TranslatedText>
        </Decode>
      </CodeListItem>
      <CodeListItem CodedValue="ABUSE-TOTAL=1+ PRESENT-AMPHETAMINES">
        <Decode>
          <TranslatedText>ABUSE-TOTAL=1+ PRESENT-AMPHETAMINES</TranslatedText>
        </Decode>
      </CodeListItem>
      <CodeListItem CodedValue="ABUSE-TOTAL=1+ PRESENT-CANNABIS">
        <Decode>
          <TranslatedText>ABUSE-TOTAL=1+ PRESENT-CANNABIS</TranslatedText>
        </Decode>
      </CodeListItem>
      <CodeListItem CodedValue="ABUSE-TOTAL=1+ PRESENT-COCAINE">
        <Decode>
          <TranslatedText>ABUSE-TOTAL=1+ PRESENT-COCAINE</TranslatedText>
        </Decode>
      </CodeListItem>
      <CodeListItem CodedValue="ABUSE-TOTAL=1+ PRESENT-HALLUCINOGENS">
        <Decode>
          <TranslatedText>ABUSE-TOTAL=1+ PRESENT-HALLUCINOGENS</TranslatedText>
        </Decode>
      </CodeListItem>
      <CodeListItem CodedValue="ABUSE-TOTAL=1+ PRESENT-INHALANTS">
        <Decode>
          <TranslatedText>ABUSE-TOTAL=1+ PRESENT-INHALANTS</TranslatedText>
        </Decode>
      </CodeListItem>
      <CodeListItem CodedValue="ABUSE-TOTAL=1+ PRESENT-NICOTINE">
        <Decode>
          <TranslatedText>ABUSE-TOTAL=1+ PRESENT-NICOTINE</TranslatedText>
        </Decode>
      </CodeListItem>
      <CodeListItem CodedValue="ABUSE-TOTAL=1+ PRESENT-OPIATES">
        <Decode>
          <TranslatedText>ABUSE-TOTAL=1+ PRESENT-OPIATES</TranslatedText>
        </Decode>
      </CodeListItem>
      <CodeListItem CodedValue="ABUSE-TOTAL=1+ PRESENT-PCP">
        <Decode>
          <TranslatedText>ABUSE-TOTAL=1+ PRESENT-PCP</TranslatedText>
        </Decode>
      </CodeListItem>
      <CodeListItem CodedValue="ABUSE-TOTAL=1+ PRESENT-SED/BENZ.">
        <Decode>
          <TranslatedText>ABUSE-TOTAL=1+ PRESENT-SED/BENZ.</TranslatedText>
        </Decode>
      </CodeListItem>
      <CodeListItem CodedValue="ACTIVITIES GIVEN UP/REDUCED-ALCOHOL">
        <Decode>
          <TranslatedText>ACTIVITIES GIVEN UP/REDUCED-ALCOHOL</TranslatedText>
        </Decode>
      </CodeListItem>
      <CodeListItem CodedValue="ACTIVITIES GIVEN UP/REDUCED-AMPHETAMNES">
        <Decode>
          <TranslatedText>ACTIVITIES GIVEN UP/REDUCED-AMPHETAMNES</TranslatedText>
        </Decode>
      </CodeListItem>
      <CodeListItem CodedValue="ACTIVITIES GIVEN UP/REDUCED-CANNABIS">
        <Decode>
          <TranslatedText>ACTIVITIES GIVEN UP/REDUCED-CANNABIS</TranslatedText>
        </Decode>
      </CodeListItem>
      <CodeListItem CodedValue="ACTIVITIES GIVEN UP/REDUCED-COCAINE">
        <Decode>
          <TranslatedText>ACTIVITIES GIVEN UP/REDUCED-COCAINE</TranslatedText>
        </Decode>
      </CodeListItem>
      <CodeListItem CodedValue="ACTIVITIES GIVEN UP/REDUCED-HALLUC.">
        <Decode>
          <TranslatedText>ACTIVITIES GIVEN UP/REDUCED-HALLUC.</TranslatedText>
        </Decode>
      </CodeListItem>
      <CodeListItem CodedValue="ACTIVITIES GIVEN UP/REDUCED-INHALANTS">
        <Decode>
          <TranslatedText>ACTIVITIES GIVEN UP/REDUCED-INHALANTS</TranslatedText>
        </Decode>
      </CodeListItem>
      <CodeListItem CodedValue="ACTIVITIES GIVEN UP/REDUCED-NICOTINE">
        <Decode>
          <TranslatedText>ACTIVITIES GIVEN UP/REDUCED-NICOTINE</TranslatedText>
        </Decode>
      </CodeListItem>
      <CodeListItem CodedValue="ACTIVITIES GIVEN UP/REDUCED-OPIATES">
        <Decode>
          <TranslatedText>ACTIVITIES GIVEN UP/REDUCED-OPIATES</TranslatedText>
        </Decode>
      </CodeListItem>
      <CodeListItem CodedValue="ACTIVITIES GIVEN UP/REDUCED-PCP">
        <Decode>
          <TranslatedText>ACTIVITIES GIVEN UP/REDUCED-PCP</TranslatedText>
        </Decode>
      </CodeListItem>
      <CodeListItem CodedValue="ACTIVITIES GIVEN UP/REDUCED-SED/BENZ.">
        <Decode>
          <TranslatedText>ACTIVITIES GIVEN UP/REDUCED-SED/BENZ.</TranslatedText>
        </Decode>
      </CodeListItem>
      <CodeListItem CodedValue="ADMISSION PROMPTED- CRIMINAL JUSTICE SYS">
        <Decode>
          <TranslatedText>ADMISSION PROMPTED- CRIMINAL JUSTICE SYS</TranslatedText>
        </Decode>
      </CodeListItem>
      <CodeListItem CodedValue="ALCOHOL (ANY USE AT ALL) LIFETIME USE">
        <Decode>
          <TranslatedText>ALCOHOL (ANY USE AT ALL) LIFETIME USE</TranslatedText>
        </Decode>
      </CodeListItem>
      <CodeListItem CodedValue="ALCOHOL (ANY USE AT ALL) PAST 30 DAYS">
        <Decode>
          <TranslatedText>ALCOHOL (ANY USE AT ALL) PAST 30 DAYS</TranslatedText>
        </Decode>
      </CodeListItem>
      <CodeListItem CodedValue="ALCOHOL (TO INTOXICATION) LIFETIME USE">
        <Decode>
          <TranslatedText>ALCOHOL (TO INTOXICATION) LIFETIME USE</TranslatedText>
        </Decode>
      </CodeListItem>
      <CodeListItem CodedValue="ALCOHOL (TO INTOXICATION) PAST 30 DAYS">
        <Decode>
          <TranslatedText>ALCOHOL (TO INTOXICATION) PAST 30 DAYS</TranslatedText>
        </Decode>
      </CodeListItem>
      <CodeListItem CodedValue="AMPHETAMINES-LIFETIME USE">
        <Decode>
          <TranslatedText>AMPHETAMINES-LIFETIME USE</TranslatedText>
        </Decode>
      </CodeListItem>
      <CodeListItem CodedValue="AMPHETAMINES-PAST 30 DAYS">
        <Decode>
          <TranslatedText>AMPHETAMINES-PAST 30 DAYS</TranslatedText>
        </Decode>
      </CodeListItem>
      <CodeListItem CodedValue="AMPHETAMINES-USUAL/MOST RECENT ROUTE">
        <Decode>
          <TranslatedText>AMPHETAMINES-USUAL/MOST RECENT ROUTE</TranslatedText>
        </Decode>
      </CodeListItem>
      <CodeListItem CodedValue="ANXIETY OR IRRITABILITY">
        <Decode>
          <TranslatedText>ANXIETY OR IRRITABILITY</TranslatedText>
        </Decode>
      </CodeListItem>
      <CodeListItem CodedValue="ANY CHRONIC MEDICAL PROBLEMS">
        <Decode>
          <TranslatedText>ANY CHRONIC MEDICAL PROBLEMS</TranslatedText>
        </Decode>
      </CodeListItem>
      <CodeListItem CodedValue="ARE YOU ON PROBATION OR PAROLE?">
        <Decode>
          <TranslatedText>ARE YOU ON PROBATION OR PAROLE?</TranslatedText>
        </Decode>
      </CodeListItem>
      <CodeListItem CodedValue="AWAITING CHARGES, TRIAL OR SENTENCE">
        <Decode>
          <TranslatedText>AWAITING CHARGES, TRIAL OR SENTENCE</TranslatedText>
        </Decode>
      </CodeListItem>
      <CodeListItem CodedValue="AWAITING CHARGES, TRIAL, SENTENCE FOR">
        <Decode>
          <TranslatedText>AWAITING CHARGES, TRIAL, SENTENCE FOR</TranslatedText>
        </Decode>
      </CodeListItem>
      <CodeListItem CodedValue="BARBITURATES- USUAL/MOST RECENT ROUTE">
        <Decode>
          <TranslatedText>BARBITURATES- USUAL/MOST RECENT ROUTE</TranslatedText>
        </Decode>
      </CodeListItem>
      <CodeListItem CodedValue="BARBITURATES-LIFETIME USE">
        <Decode>
          <TranslatedText>BARBITURATES-LIFETIME USE</TranslatedText>
        </Decode>
      </CodeListItem>
      <CodeListItem CodedValue="BARBITURATES-PAST 30 DAYS">
        <Decode>
          <TranslatedText>BARBITURATES-PAST 30 DAYS</TranslatedText>
        </Decode>
      </CodeListItem>
      <CodeListItem CodedValue="BEATS/MINUTE">
        <Decode>
          <TranslatedText>BEATS/MINUTE</TranslatedText>
        </Decode>
      </CodeListItem>
      <CodeListItem CodedValue="BLDG CHARACTRSTCS DETRACT FROM SERVICES">
        <Decode>
          <TranslatedText>BLDG CHARACTRSTCS DETRACT FROM SERVICES</TranslatedText>
        </Decode>
      </CodeListItem>
      <CodeListItem CodedValue="BONE OR JOINT ACHES">
        <Decode>
          <TranslatedText>BONE OR JOINT ACHES</TranslatedText>
        </Decode>
      </CodeListItem>
      <CodeListItem CodedValue="CANNABIS-LIFETIME USE">
        <Decode>
          <TranslatedText>CANNABIS-LIFETIME USE</TranslatedText>
        </Decode>
      </CodeListItem>
      <CodeListItem CodedValue="CANNABIS-PAST 30 DAYS">
        <Decode>
          <TranslatedText>CANNABIS-PAST 30 DAYS</TranslatedText>
        </Decode>
      </CodeListItem>
      <CodeListItem CodedValue="CANNABIS-USUAL/MOST RECENT ROUTE">
        <Decode>
          <TranslatedText>CANNABIS-USUAL/MOST RECENT ROUTE</TranslatedText>
        </Decode>
      </CodeListItem>
      <CodeListItem CodedValue="CLASS">
        <Decode>
          <TranslatedText>CLASS</TranslatedText>
        </Decode>
      </CodeListItem>
      <CodeListItem CodedValue="CLEANS NEEDLE WITH BLEACH, LAST MONTH">
        <Decode>
          <TranslatedText>CLEANS NEEDLE WITH BLEACH, LAST MONTH</TranslatedText>
        </Decode>
      </CodeListItem>
      <CodeListItem CodedValue="COCAINE-LIFETIME USE">
        <Decode>
          <TranslatedText>COCAINE-LIFETIME USE</TranslatedText>
        </Decode>
      </CodeListItem>
      <CodeListItem CodedValue="COCAINE-PAST 30 DAYS">
        <Decode>
          <TranslatedText>COCAINE-PAST 30 DAYS</TranslatedText>
        </Decode>
      </CodeListItem>
      <CodeListItem CodedValue="COCAINE-USUAL/MOST RECENT ROUTE">
        <Decode>
          <TranslatedText>COCAINE-USUAL/MOST RECENT ROUTE</TranslatedText>
        </Decode>
      </CodeListItem>
      <CodeListItem CodedValue="COMPETENT AND KNOWLEDGABLE STAFF">
        <Decode>
          <TranslatedText>COMPETENT AND KNOWLEDGABLE STAFF</TranslatedText>
        </Decode>
      </CodeListItem>
      <CodeListItem CodedValue="CONDOMS, CASUAL PARTNERS, LAST MONTH">
        <Decode>
          <TranslatedText>CONDOMS, CASUAL PARTNERS, LAST MONTH</TranslatedText>
        </Decode>
      </CodeListItem>
      <CodeListItem CodedValue="CONDOMS, PAID FOR SEX, LAST MONTH">
        <Decode>
          <TranslatedText>CONDOMS, PAID FOR SEX, LAST MONTH</TranslatedText>
        </Decode>
      </CodeListItem>
      <CodeListItem CodedValue="CONDOMS, REGULAR PARTNERS, LAST MONTH">
        <Decode>
          <TranslatedText>CONDOMS, REGULAR PARTNERS, LAST MONTH</TranslatedText>
        </Decode>
      </CodeListItem>
      <CodeListItem CodedValue="CONDOMS, TIMES ANAL SEX, LAST MONTH">
        <Decode>
          <TranslatedText>CONDOMS, TIMES ANAL SEX, LAST MONTH</TranslatedText>
        </Decode>
      </CodeListItem>
      <CodeListItem CodedValue="CONT. USE DESPITE PHYS PROB-ALCOHOL">
        <Decode>
          <TranslatedText>CONT. USE DESPITE PHYS PROB-ALCOHOL</TranslatedText>
        </Decode>
      </CodeListItem>
      <CodeListItem CodedValue="CONT. USE DESPITE PHYS PROB-AMPHETAMNS">
        <Decode>
          <TranslatedText>CONT. USE DESPITE PHYS PROB-AMPHETAMNS</TranslatedText>
        </Decode>
      </CodeListItem>
      <CodeListItem CodedValue="CONT. USE DESPITE PHYS PROB-CANNABIS">
        <Decode>
          <TranslatedText>CONT. USE DESPITE PHYS PROB-CANNABIS</TranslatedText>
        </Decode>
      </CodeListItem>
      <CodeListItem CodedValue="CONT. USE DESPITE PHYS PROB-COCAINE">
        <Decode>
          <TranslatedText>CONT. USE DESPITE PHYS PROB-COCAINE</TranslatedText>
        </Decode>
      </CodeListItem>
      <CodeListItem CodedValue="CONT. USE DESPITE PHYS PROB-HALLUC.">
        <Decode>
          <TranslatedText>CONT. USE DESPITE PHYS PROB-HALLUC.</TranslatedText>
        </Decode>
      </CodeListItem>
      <CodeListItem CodedValue="CONT. USE DESPITE PHYS PROB-INHALANTS">
        <Decode>
          <TranslatedText>CONT. USE DESPITE PHYS PROB-INHALANTS</TranslatedText>
        </Decode>
      </CodeListItem>
      <CodeListItem CodedValue="CONT. USE DESPITE PHYS PROB-NICOTINE">
        <Decode>
          <TranslatedText>CONT. USE DESPITE PHYS PROB-NICOTINE</TranslatedText>
        </Decode>
      </CodeListItem>
      <CodeListItem CodedValue="CONT. USE DESPITE PHYS PROB-OPIATES">
        <Decode>
          <TranslatedText>CONT. USE DESPITE PHYS PROB-OPIATES</TranslatedText>
        </Decode>
      </CodeListItem>
      <CodeListItem CodedValue="CONT. USE DESPITE PHYS PROB-PCP">
        <Decode>
          <TranslatedText>CONT. USE DESPITE PHYS PROB-PCP</TranslatedText>
        </Decode>
      </CodeListItem>
      <CodeListItem CodedValue="CONT. USE DESPITE PHYS PROB-SED/BENZ.">
        <Decode>
          <TranslatedText>CONT. USE DESPITE PHYS PROB-SED/BENZ.</TranslatedText>
        </Decode>
      </CodeListItem>
      <CodeListItem CodedValue="CONTACT CODE">
        <Decode>
          <TranslatedText>CONTACT CODE</TranslatedText>
        </Decode>
      </CodeListItem>
      <CodeListItem CodedValue="COWS TOTAL SCORE">
        <Decode>
          <TranslatedText>COWS TOTAL SCORE</TranslatedText>
        </Decode>
      </CodeListItem>
      <CodeListItem CodedValue="CURRENTLY CRAVE OPIATES">
        <Decode>
          <TranslatedText>CURRENTLY CRAVE OPIATES</TranslatedText>
        </Decode>
      </CodeListItem>
      <CodeListItem CodedValue="CURRENTLY DEPENDANT ON OTHER SUBSTANCE">
        <Decode>
          <TranslatedText>CURRENTLY DEPENDANT ON OTHER SUBSTANCE</TranslatedText>
        </Decode>
      </CodeListItem>
      <CodeListItem CodedValue="CURRENTLY OPIOID DEPENDANT">
        <Decode>
          <TranslatedText>CURRENTLY OPIOID DEPENDANT</TranslatedText>
        </Decode>
      </CodeListItem>
      <CodeListItem CodedValue="DATE OF ADMISSION">
        <Decode>
          <TranslatedText>DATE OF ADMISSION</TranslatedText>
        </Decode>
      </CodeListItem>
      <CodeListItem CodedValue="DATE OF BIRTH">
        <Decode>
          <TranslatedText>DATE OF BIRTH</TranslatedText>
        </Decode>
      </CodeListItem>
      <CodeListItem CodedValue="DATE SIGNED">
        <Decode>
          <TranslatedText>DATE SIGNED</TranslatedText>
        </Decode>
      </CodeListItem>
      <CodeListItem CodedValue="DAYS OF EMPLOYMENT PROBLEMS - PAST 30">
        <Decode>
          <TranslatedText>DAYS OF EMPLOYMENT PROBLEMS - PAST 30</TranslatedText>
        </Decode>
      </CodeListItem>
      <CodeListItem CodedValue="DAYS OF MEDICAL PROBLEMS - PAST 30 DAYS">
        <Decode>
          <TranslatedText>DAYS OF MEDICAL PROBLEMS - PAST 30 DAYS</TranslatedText>
        </Decode>
      </CodeListItem>
      <CodeListItem CodedValue="DAYS PAID FOR WORKING - PAST 30 DAYS">
        <Decode>
          <TranslatedText>DAYS PAID FOR WORKING - PAST 30 DAYS</TranslatedText>
        </Decode>
      </CodeListItem>
      <CodeListItem CodedValue="DEPENDENCE-TOTAL=3 + PRESENT-ALCOHOL">
        <Decode>
          <TranslatedText>DEPENDENCE-TOTAL=3 + PRESENT-ALCOHOL</TranslatedText>
        </Decode>
      </CodeListItem>
      <CodeListItem CodedValue="DEPENDENCE-TOTAL=3 + PRESENT-AMPHETMNS">
        <Decode>
          <TranslatedText>DEPENDENCE-TOTAL=3 + PRESENT-AMPHETMNS</TranslatedText>
        </Decode>
      </CodeListItem>
      <CodeListItem CodedValue="DEPENDENCE-TOTAL=3 + PRESENT-CANNABIS">
        <Decode>
          <TranslatedText>DEPENDENCE-TOTAL=3 + PRESENT-CANNABIS</TranslatedText>
        </Decode>
      </CodeListItem>
      <CodeListItem CodedValue="DEPENDENCE-TOTAL=3 + PRESENT-COCAINE">
        <Decode>
          <TranslatedText>DEPENDENCE-TOTAL=3 + PRESENT-COCAINE</TranslatedText>
        </Decode>
      </CodeListItem>
      <CodeListItem CodedValue="DEPENDENCE-TOTAL=3 + PRESENT-HALLUC.">
        <Decode>
          <TranslatedText>DEPENDENCE-TOTAL=3 + PRESENT-HALLUC.</TranslatedText>
        </Decode>
      </CodeListItem>
      <CodeListItem CodedValue="DEPENDENCE-TOTAL=3 + PRESENT-INHALANTS">
        <Decode>
          <TranslatedText>DEPENDENCE-TOTAL=3 + PRESENT-INHALANTS</TranslatedText>
        </Decode>
      </CodeListItem>
      <CodeListItem CodedValue="DEPENDENCE-TOTAL=3 + PRESENT-NICOTINE">
        <Decode>
          <TranslatedText>DEPENDENCE-TOTAL=3 + PRESENT-NICOTINE</TranslatedText>
        </Decode>
      </CodeListItem>
      <CodeListItem CodedValue="DEPENDENCE-TOTAL=3 + PRESENT-OPIATES">
        <Decode>
          <TranslatedText>DEPENDENCE-TOTAL=3 + PRESENT-OPIATES</TranslatedText>
        </Decode>
      </CodeListItem>
      <CodeListItem CodedValue="DEPENDENCE-TOTAL=3 + PRESENT-PCP">
        <Decode>
          <TranslatedText>DEPENDENCE-TOTAL=3 + PRESENT-PCP</TranslatedText>
        </Decode>
      </CodeListItem>
      <CodeListItem CodedValue="DEPENDENCE-TOTAL=3 + PRESENT-SED./BENZ.">
        <Decode>
          <TranslatedText>DEPENDENCE-TOTAL=3 + PRESENT-SED./BENZ.</TranslatedText>
        </Decode>
      </CodeListItem>
      <CodeListItem CodedValue="DEPRESSED OR SAD">
        <Decode>
          <TranslatedText>DEPRESSED OR SAD</TranslatedText>
        </Decode>
      </CodeListItem>
      <CodeListItem CodedValue="DESIRE/FAILURE TO CUT DOWN-ALCOHOL">
        <Decode>
          <TranslatedText>DESIRE/FAILURE TO CUT DOWN-ALCOHOL</TranslatedText>
        </Decode>
      </CodeListItem>
      <CodeListItem CodedValue="DESIRE/FAILURE TO CUT DOWN-AMPHETAMNES">
        <Decode>
          <TranslatedText>DESIRE/FAILURE TO CUT DOWN-AMPHETAMNES</TranslatedText>
        </Decode>
      </CodeListItem>
      <CodeListItem CodedValue="DESIRE/FAILURE TO CUT DOWN-CANNABIS">
        <Decode>
          <TranslatedText>DESIRE/FAILURE TO CUT DOWN-CANNABIS</TranslatedText>
        </Decode>
      </CodeListItem>
      <CodeListItem CodedValue="DESIRE/FAILURE TO CUT DOWN-COCAINE">
        <Decode>
          <TranslatedText>DESIRE/FAILURE TO CUT DOWN-COCAINE</TranslatedText>
        </Decode>
      </CodeListItem>
      <CodeListItem CodedValue="DESIRE/FAILURE TO CUT DOWN-HALLUC.">
        <Decode>
          <TranslatedText>DESIRE/FAILURE TO CUT DOWN-HALLUC.</TranslatedText>
        </Decode>
      </CodeListItem>
      <CodeListItem CodedValue="DESIRE/FAILURE TO CUT DOWN-INHALANTS">
        <Decode>
          <TranslatedText>DESIRE/FAILURE TO CUT DOWN-INHALANTS</TranslatedText>
        </Decode>
      </CodeListItem>
      <CodeListItem CodedValue="DESIRE/FAILURE TO CUT DOWN-NICOTINE">
        <Decode>
          <TranslatedText>DESIRE/FAILURE TO CUT DOWN-NICOTINE</TranslatedText>
        </Decode>
      </CodeListItem>
      <CodeListItem CodedValue="DESIRE/FAILURE TO CUT DOWN-OPIATES">
        <Decode>
          <TranslatedText>DESIRE/FAILURE TO CUT DOWN-OPIATES</TranslatedText>
        </Decode>
      </CodeListItem>
      <CodeListItem CodedValue="DESIRE/FAILURE TO CUT DOWN-PCP">
        <Decode>
          <TranslatedText>DESIRE/FAILURE TO CUT DOWN-PCP</TranslatedText>
        </Decode>
      </CodeListItem>
      <CodeListItem CodedValue="DESIRE/FAILURE TO CUT DOWN-SED/BENZ.">
        <Decode>
          <TranslatedText>DESIRE/FAILURE TO CUT DOWN-SED/BENZ.</TranslatedText>
        </Decode>
      </CodeListItem>
      <CodeListItem CodedValue="DISTORTED BY INABILITY TO UNDERSTAND">
        <Decode>
          <TranslatedText>DISTORTED BY INABILITY TO UNDERSTAND</TranslatedText>
        </Decode>
      </CodeListItem>
      <CodeListItem CodedValue="DO YOU HAVE A RELIGIOUS PREFERENCE">
        <Decode>
          <TranslatedText>DO YOU HAVE A RELIGIOUS PREFERENCE</TranslatedText>
        </Decode>
      </CodeListItem>
      <CodeListItem CodedValue="DOES HEALTH LIMIT-BATHING OR DRESSING">
        <Decode>
          <TranslatedText>DOES HEALTH LIMIT-BATHING OR DRESSING</TranslatedText>
        </Decode>
      </CodeListItem>
      <CodeListItem CodedValue="DOES HEALTH LIMIT-BENDING/KNEELING">
        <Decode>
          <TranslatedText>DOES HEALTH LIMIT-BENDING/KNEELING</TranslatedText>
        </Decode>
      </CodeListItem>
      <CodeListItem CodedValue="DOES HEALTH LIMIT-CARRYING GROCERIES">
        <Decode>
          <TranslatedText>DOES HEALTH LIMIT-CARRYING GROCERIES</TranslatedText>
        </Decode>
      </CodeListItem>
      <CodeListItem CodedValue="DOES HEALTH LIMIT-CLIMB 1 FLIGHT STAIRS">
        <Decode>
          <TranslatedText>DOES HEALTH LIMIT-CLIMB 1 FLIGHT STAIRS</TranslatedText>
        </Decode>
      </CodeListItem>
      <CodeListItem CodedValue="DOES HEALTH LIMIT-CLIMB >1 FLIGHTSTAIRS">
        <Decode>
          <TranslatedText>DOES HEALTH LIMIT-CLIMB >1 FLIGHTSTAIRS</TranslatedText>
        </Decode>
      </CodeListItem>
      <CodeListItem CodedValue="DOES HEALTH LIMIT-MODERATE ACTIVITIES">
        <Decode>
          <TranslatedText>DOES HEALTH LIMIT-MODERATE ACTIVITIES</TranslatedText>
        </Decode>
      </CodeListItem>
      <CodeListItem CodedValue="DOES HEALTH LIMIT-VIGOROUS ACTIVITIES">
        <Decode>
          <TranslatedText>DOES HEALTH LIMIT-VIGOROUS ACTIVITIES</TranslatedText>
        </Decode>
      </CodeListItem>
      <CodeListItem CodedValue="DOES HEALTH LIMIT-WALK SEVERAL BLOCKS">
        <Decode>
          <TranslatedText>DOES HEALTH LIMIT-WALK SEVERAL BLOCKS</TranslatedText>
        </Decode>
      </CodeListItem>
      <CodeListItem CodedValue="DOES HEALTH LIMIT-WALKING >1 MILE">
        <Decode>
          <TranslatedText>DOES HEALTH LIMIT-WALKING >1 MILE</TranslatedText>
        </Decode>
      </CodeListItem>
      <CodeListItem CodedValue="DOES HEALTH LIMIT-WALKING ONE BLOCK">
        <Decode>
          <TranslatedText>DOES HEALTH LIMIT-WALKING ONE BLOCK</TranslatedText>
        </Decode>
      </CodeListItem>
      <CodeListItem CodedValue="EDUCATION COMPLETED - MONTHS">
        <Decode>
          <TranslatedText>EDUCATION COMPLETED - MONTHS</TranslatedText>
        </Decode>
      </CodeListItem>
      <CodeListItem CodedValue="EDUCATION COMPLETED - YEARS">
        <Decode>
          <TranslatedText>EDUCATION COMPLETED - YEARS</TranslatedText>
        </Decode>
      </CodeListItem>
      <CodeListItem CodedValue="EVER FILLED OUT THIS FORM BEFORE?">
        <Decode>
          <TranslatedText>EVER FILLED OUT THIS FORM BEFORE?</TranslatedText>
        </Decode>
      </CodeListItem>
      <CodeListItem CodedValue="EXCESSIVE SNEEZING">
        <Decode>
          <TranslatedText>EXCESSIVE SNEEZING</TranslatedText>
        </Decode>
      </CodeListItem>
      <CodeListItem CodedValue="EXCESSIVELY YAWNING">
        <Decode>
          <TranslatedText>EXCESSIVELY YAWNING</TranslatedText>
        </Decode>
      </CodeListItem>
      <CodeListItem CodedValue="FAILURE TO FULFILL OBLIGATION-ALCOHOL">
        <Decode>
          <TranslatedText>FAILURE TO FULFILL OBLIGATION-ALCOHOL</TranslatedText>
        </Decode>
      </CodeListItem>
      <CodeListItem CodedValue="FAILURE TO FULFILL OBLIGATION-AMPHETMNS">
        <Decode>
          <TranslatedText>FAILURE TO FULFILL OBLIGATION-AMPHETMNS</TranslatedText>
        </Decode>
      </CodeListItem>
      <CodeListItem CodedValue="FAILURE TO FULFILL OBLIGATION-CANNABIS">
        <Decode>
          <TranslatedText>FAILURE TO FULFILL OBLIGATION-CANNABIS</TranslatedText>
        </Decode>
      </CodeListItem>
      <CodeListItem CodedValue="FAILURE TO FULFILL OBLIGATION-COCAINE">
        <Decode>
          <TranslatedText>FAILURE TO FULFILL OBLIGATION-COCAINE</TranslatedText>
        </Decode>
      </CodeListItem>
      <CodeListItem CodedValue="FAILURE TO FULFILL OBLIGATION-HALLUC.">
        <Decode>
          <TranslatedText>FAILURE TO FULFILL OBLIGATION-HALLUC.</TranslatedText>
        </Decode>
      </CodeListItem>
      <CodeListItem CodedValue="FAILURE TO FULFILL OBLIGATION-INHALANTS">
        <Decode>
          <TranslatedText>FAILURE TO FULFILL OBLIGATION-INHALANTS</TranslatedText>
        </Decode>
      </CodeListItem>
      <CodeListItem CodedValue="FAILURE TO FULFILL OBLIGATION-NICOTINE">
        <Decode>
          <TranslatedText>FAILURE TO FULFILL OBLIGATION-NICOTINE</TranslatedText>
        </Decode>
      </CodeListItem>
      <CodeListItem CodedValue="FAILURE TO FULFILL OBLIGATION-OPIATES">
        <Decode>
          <TranslatedText>FAILURE TO FULFILL OBLIGATION-OPIATES</TranslatedText>
        </Decode>
      </CodeListItem>
      <CodeListItem CodedValue="FAILURE TO FULFILL OBLIGATION-PCP">
        <Decode>
          <TranslatedText>FAILURE TO FULFILL OBLIGATION-PCP</TranslatedText>
        </Decode>
      </CodeListItem>
      <CodeListItem CodedValue="FAILURE TO FULFILL OBLIGATION-SED/BENZ.">
        <Decode>
          <TranslatedText>FAILURE TO FULFILL OBLIGATION-SED/BENZ.</TranslatedText>
        </Decode>
      </CodeListItem>
      <CodeListItem CodedValue="FITFUL SLEEP">
        <Decode>
          <TranslatedText>FITFUL SLEEP</TranslatedText>
        </Decode>
      </CodeListItem>
      <CodeListItem CodedValue="GENDER">
        <Decode>
          <TranslatedText>GENDER</TranslatedText>
        </Decode>
      </CodeListItem>
      <CodeListItem CodedValue="GET THE KIND OF SERVICE YOU WANTED">
        <Decode>
          <TranslatedText>GET THE KIND OF SERVICE YOU WANTED</TranslatedText>
        </Decode>
      </CodeListItem>
      <CodeListItem CodedValue="GI UPSET: OVER LAST 1/2 HOUR">
        <Decode>
          <TranslatedText>GI UPSET: OVER LAST 1/2 HOUR</TranslatedText>
        </Decode>
      </CodeListItem>
      <CodeListItem CodedValue="GOOSEFLESH SKIN">
        <Decode>
          <TranslatedText>GOOSEFLESH SKIN</TranslatedText>
        </Decode>
      </CodeListItem>
      <CodeListItem CodedValue="HALLUCINOGENS-LIFETIME USE">
        <Decode>
          <TranslatedText>HALLUCINOGENS-LIFETIME USE</TranslatedText>
        </Decode>
      </CodeListItem>
      <CodeListItem CodedValue="HALLUCINOGENS-PAST 30 DAYS">
        <Decode>
          <TranslatedText>HALLUCINOGENS-PAST 30 DAYS</TranslatedText>
        </Decode>
      </CodeListItem>
      <CodeListItem CodedValue="HALLUCINOGENS-USUAL/MOST RECENT ROUTE">
        <Decode>
          <TranslatedText>HALLUCINOGENS-USUAL/MOST RECENT ROUTE</TranslatedText>
        </Decode>
      </CodeListItem>
      <CodeListItem CodedValue="HAVE AN AUTOMOBILE AVAILABLE FOR USE">
        <Decode>
          <TranslatedText>HAVE AN AUTOMOBILE AVAILABLE FOR USE</TranslatedText>
        </Decode>
      </CodeListItem>
      <CodeListItem CodedValue="HAVE VALID DRIVER'S LICENSE">
        <Decode>
          <TranslatedText>HAVE VALID DRIVER'S LICENSE</TranslatedText>
        </Decode>
      </CodeListItem>
